timestamp,ppg,hrm,accx,accy,accz,grax,gray,graz,gyrx,gyry,grz,pressure,stress,shiftedTime
1561984036770,2726547.0,0.0,9.09,1.52,4.9,8.77,0.98,4.29,-1.96,-0.21,-0.77,994.03,0.0,1561984067470.0
1561984036770,2726942.0,0.0,8.54,1.17,4.47,8.75,0.99,4.32,-1.96,-0.21,-0.77,994.03,0.0,1561984067470.0
1561984036770,2725979.0,0.0,8.65,0.97,4.23,8.74,1.0,4.34,-1.96,-0.21,-0.77,994.03,0.0,1561984067470.0
1561984036770,2724285.0,0.0,8.72,1.02,4.47,8.72,1.03,4.36,-1.96,-0.14,-0.77,994.03,0.0,1561984067470.0
1561984036770,2722912.0,0.0,8.56,1.06,4.27,8.72,1.01,4.37,-1.96,-0.21,-0.77,994.03,0.0,1561984067470.0
1561984036770,2721763.0,0.0,8.41,1.23,4.29,8.73,1.01,4.35,-1.96,-0.21,-0.77,994.02,0.0,1561984067470.0
1561984036770,2720484.0,0.0,8.29,0.86,4.07,8.73,1.01,4.34,-1.96,-0.21,-0.84,994.02,0.0,1561984067470.0
1561984036770,2719634.0,0.0,8.5,0.9,3.89,8.72,1.03,4.37,-1.96,-0.21,-0.77,994.02,0.0,1561984067470.0
1561984036771,2718924.0,0.0,8.54,0.99,4.09,8.72,1.07,4.36,-1.96,-0.21,-0.77,994.02,0.0,1561984067471.0
1561984036771,2718191.0,0.0,8.58,1.19,4.43,8.71,1.1,4.37,-1.89,-0.21,-0.77,994.02,0.0,1561984067471.0
1561984036771,2717654.0,0.0,8.65,1.4,4.13,8.71,1.11,4.37,-1.96,-0.21,-0.77,994.01,0.0,1561984067471.0
1561984036771,2716813.0,0.0,8.63,1.27,4.26,8.69,1.13,4.39,-1.96,-0.21,-0.77,994.01,0.0,1561984067471.0
1561984036771,2716677.0,0.0,8.77,1.21,4.34,8.69,1.12,4.4,-1.96,-0.21,-0.84,994.01,0.0,1561984067471.0
1561984036771,2716555.0,0.0,8.68,1.29,4.46,8.69,1.12,4.41,-1.96,-0.21,-0.77,994.01,0.0,1561984067471.0
1561984036771,2717290.0,0.0,8.54,1.05,4.29,8.68,1.12,4.42,-1.96,-0.21,-0.77,994.01,0.0,1561984067471.0
1561984036772,2718421.0,0.0,8.72,1.07,4.37,8.68,1.11,4.43,-1.96,-0.21,-0.77,994.01,0.0,1561984067472.0
1561984036772,2719338.0,0.0,8.69,1.12,4.33,8.68,1.11,4.43,-1.96,-0.21,-0.84,994.01,0.0,1561984067472.0
1561984036772,2720412.0,0.0,8.58,0.99,4.4,8.67,1.13,4.43,-1.96,-0.21,-0.77,994.01,0.0,1561984067472.0
1561984036772,2721838.0,0.0,8.69,1.16,4.3,8.68,1.14,4.43,-1.96,-0.21,-0.77,994.01,0.0,1561984067472.0
1561984036818,2723109.0,0.0,8.73,1.28,4.35,8.68,1.16,4.41,-1.96,-0.21,-0.77,994.0,0.0,1561984067518.0
1561984036866,2724645.0,0.0,8.74,1.2,4.28,8.68,1.19,4.4,-1.89,-0.21,-0.77,994.0,0.0,1561984067566.0
1561984036920,2724961.0,0.0,8.63,1.31,4.16,8.7,1.2,4.37,-1.96,-0.21,-0.77,994.0,0.0,1561984067620.0
1561984036966,2723825.0,0.0,8.6,1.42,4.13,8.71,1.2,4.34,-1.96,-0.21,-0.77,994.0,0.0,1561984067666.0
1561984037019,2722386.0,0.0,8.61,1.2,3.97,8.72,1.18,4.33,-1.96,-0.21,-0.77,994.0,0.0,1561984067719.0
1561984037066,2721640.0,0.0,8.66,1.14,3.88,8.72,1.19,4.33,-1.96,-0.21,-0.84,993.99,0.0,1561984067766.0
1561984037120,2720244.0,0.0,8.99,1.05,4.18,8.72,1.22,4.31,-1.96,-0.21,-0.77,993.99,0.0,1561984067820.0
1561984037167,2719509.0,0.0,9.12,1.36,4.49,8.73,1.21,4.3,-1.96,-0.21,-0.77,993.99,0.0,1561984067867.0
1561984037220,2718915.0,0.0,8.82,1.44,4.09,8.73,1.21,4.3,-1.96,-0.21,-0.77,993.99,0.0,1561984067920.0
1561984037267,2718319.0,0.0,8.69,1.11,4.01,8.72,1.23,4.32,-1.96,-0.21,-0.77,993.98,0.0,1561984067967.0
1561984037320,2717539.0,0.0,9.17,1.24,4.44,8.72,1.28,4.3,-1.96,-0.21,-0.77,993.98,0.0,1561984068020.0
1561984037367,2717443.0,0.0,8.94,1.45,4.44,8.72,1.28,4.3,-1.96,-0.28,-0.77,993.98,0.0,1561984068067.0
1561984037419,2717559.0,0.0,8.6,1.65,4.07,8.73,1.24,4.29,-1.96,-0.21,-0.77,993.98,0.0,1561984068119.0
1561984037467,2718040.0,0.0,8.27,1.2,3.96,8.74,1.27,4.27,-1.89,-0.21,-0.77,993.98,0.0,1561984068167.0
1561984037520,2718115.0,0.0,8.53,0.92,3.93,8.76,1.26,4.22,-2.03,-0.21,-0.77,993.98,0.0,1561984068220.0
1561984037567,2718652.0,0.0,8.67,1.43,3.91,8.78,1.23,4.19,-1.96,-0.21,-0.77,993.98,0.0,1561984068267.0
1561984037620,2719318.0,0.0,8.92,1.2,3.73,8.79,1.25,4.17,-1.89,-0.21,-0.77,993.98,0.0,1561984068320.0
1561984037667,2720131.0,0.0,9.04,1.0,3.9,8.79,1.26,4.16,-1.96,-0.21,-0.77,993.98,0.0,1561984068367.0
1561984037720,2721064.0,0.0,8.87,1.33,3.85,8.79,1.26,4.16,-1.96,-0.14,-0.77,993.98,0.0,1561984068420.0
1561984037767,2721821.0,0.0,9.05,1.42,4.11,8.78,1.26,4.18,-1.96,-0.21,-0.77,993.97,0.0,1561984068467.0
1561984037820,2721825.0,0.0,9.45,1.3,4.35,8.78,1.28,4.18,-1.89,-0.21,-0.84,993.97,0.0,1561984068520.0
1561984037867,2720243.0,0.0,9.64,1.36,4.69,8.8,1.27,4.14,-1.96,-0.21,-0.77,993.97,0.0,1561984068567.0
1561984037921,2717309.0,0.0,8.99,1.47,4.23,8.82,1.26,4.09,-1.96,-0.21,-0.77,993.97,0.0,1561984068621.0
1561984037967,2713807.0,0.0,8.62,1.17,3.57,8.84,1.24,4.07,-1.89,-0.21,-0.77,993.97,0.0,1561984068667.0
1561984038020,2711215.0,0.0,8.87,1.12,3.59,8.84,1.26,4.06,-1.96,-0.28,-0.84,993.97,0.0,1561984068720.0
1561984038067,2708905.0,0.0,9.13,1.13,3.8,8.85,1.28,4.03,-1.96,-0.21,-0.77,993.97,0.0,1561984068767.0
1561984038121,2707538.0,0.0,9.05,1.44,3.95,8.86,1.29,3.99,-1.96,-0.21,-0.77,993.97,0.0,1561984068821.0
1561984038168,2706581.0,0.0,9.01,1.41,3.8,8.89,1.3,3.93,-1.96,-0.21,-0.77,993.97,0.0,1561984068868.0
1561984038221,2705695.0,0.0,8.82,1.31,3.54,8.91,1.33,3.88,-1.96,-0.21,-0.77,993.97,0.0,1561984068921.0
1561984038268,2704904.0,0.0,8.93,1.38,3.28,8.92,1.36,3.85,-1.96,-0.21,-0.77,993.97,0.0,1561984068968.0
1561984038321,2704385.0,0.0,8.81,1.49,3.42,8.92,1.37,3.83,-1.96,-0.21,-0.77,993.97,0.0,1561984069021.0
1561984038368,2704166.0,0.0,8.64,1.5,3.39,8.93,1.36,3.82,-1.96,-0.21,-0.84,993.97,0.0,1561984069068.0
1561984038422,2704406.0,0.0,8.61,1.37,3.42,8.94,1.34,3.81,-1.96,-0.21,-0.84,993.97,0.0,1561984069122.0
1561984038468,2704704.0,0.0,8.55,1.23,3.5,8.92,1.36,3.84,-1.96,-0.21,-0.77,993.97,0.0,1561984069168.0
1561984038521,2704735.0,0.0,8.98,1.21,3.6,8.92,1.38,3.83,-1.96,-0.21,-0.77,993.97,0.0,1561984069221.0
1561984038568,2705255.0,0.0,8.7,1.41,3.92,8.93,1.38,3.82,-1.89,-0.21,-0.77,993.97,0.0,1561984069268.0
1561984038621,2705549.0,0.0,8.77,1.51,3.66,8.93,1.38,3.82,-1.96,-0.21,-0.84,993.97,0.0,1561984069321.0
1561984038668,2706042.0,0.0,8.88,1.38,3.61,8.93,1.38,3.81,-1.89,-0.21,-0.77,993.97,0.0,1561984069368.0
1561984038722,2706271.0,0.0,8.98,1.34,3.78,8.93,1.39,3.8,-1.96,-0.21,-0.77,993.97,0.0,1561984069422.0
1561984038769,2705171.0,0.0,8.88,1.37,3.63,8.93,1.39,3.81,-1.96,-0.21,-0.77,993.97,0.0,1561984069469.0
1561984038821,2702078.0,0.0,9.09,1.45,3.69,8.93,1.39,3.8,-1.96,-0.21,-0.77,993.97,0.0,1561984069521.0
1561984038869,2698376.0,0.0,8.99,1.45,3.76,8.95,1.39,3.77,-1.96,-0.21,-0.84,993.97,0.0,1561984069569.0
1561984038922,2695019.0,0.0,8.97,1.33,3.66,8.96,1.41,3.74,-1.96,-0.21,-0.84,993.97,0.0,1561984069622.0
1561984038969,2691197.0,0.0,8.81,1.35,3.39,8.96,1.43,3.71,-1.96,-0.21,-0.77,993.98,0.0,1561984069669.0
1561984039022,2688319.0,0.0,8.81,1.5,3.36,8.97,1.45,3.68,-1.96,-0.21,-0.84,993.98,0.0,1561984069722.0
1561984039069,2686601.0,0.0,8.7,1.51,3.27,8.98,1.47,3.65,-1.96,-0.21,-0.84,993.98,0.0,1561984069769.0
1561984039122,2684735.0,0.0,8.66,1.57,3.25,8.99,1.48,3.63,-1.96,-0.21,-0.77,993.98,0.0,1561984069822.0
1561984039171,2683294.0,0.0,8.67,1.54,3.19,9.0,1.49,3.59,-1.96,-0.21,-0.84,993.98,0.0,1561984069871.0
1561984039222,2682193.0,0.0,8.67,1.49,3.23,9.01,1.5,3.58,-1.96,-0.21,-0.77,993.98,0.0,1561984069922.0
1561984039271,2681607.0,0.0,8.61,1.49,3.11,9.02,1.48,3.56,-1.96,-0.21,-0.77,993.98,0.0,1561984069971.0
1561984039322,2681350.0,0.0,8.54,1.42,3.19,9.01,1.48,3.58,-1.96,-0.21,-0.84,993.98,0.0,1561984070022.0
1561984039371,2680940.0,0.0,8.79,1.3,3.21,9.01,1.49,3.57,-1.89,-0.21,-0.84,993.97,0.0,1561984070071.0
1561984039422,2680785.0,0.0,8.87,1.47,3.63,9.0,1.49,3.6,-1.96,-0.21,-0.77,993.97,0.0,1561984070122.0
1561984039471,2681074.0,0.0,8.9,1.54,3.4,9.0,1.46,3.6,-1.96,-0.21,-0.84,993.97,0.0,1561984070171.0
1561984039522,2681284.0,0.0,8.68,1.41,3.58,9.0,1.46,3.62,-1.96,-0.21,-0.84,993.97,0.0,1561984070222.0
1561984039571,2681513.0,0.0,8.82,1.18,3.5,8.99,1.45,3.63,-1.96,-0.21,-0.77,993.97,0.0,1561984070271.0
1561984039623,2681701.0,0.0,8.96,1.42,3.64,8.99,1.45,3.65,-1.96,-0.21,-0.77,993.97,0.0,1561984070323.0
1561984039671,2682376.0,0.0,9.15,1.45,3.73,9.0,1.43,3.63,-1.96,-0.14,-0.77,993.97,0.0,1561984070371.0
1561984039722,2681528.0,0.0,9.21,1.42,3.84,9.01,1.41,3.6,-1.96,-0.21,-0.84,993.97,0.0,1561984070422.0
1561984039771,2678233.0,0.0,8.93,1.29,3.33,9.02,1.37,3.58,-1.96,-0.21,-0.77,993.97,0.0,1561984070471.0
1561984039821,2675257.0,0.0,9.3,1.2,3.28,9.02,1.38,3.6,-1.96,-0.21,-0.77,993.97,0.0,1561984070521.0
1561984039872,2672077.0,0.0,9.64,1.16,3.57,9.01,1.39,3.61,-1.96,-0.28,-0.77,993.97,0.0,1561984070572.0
1561984039922,2669475.0,0.0,9.07,1.39,3.69,9.01,1.38,3.62,-1.96,-0.21,-0.77,993.97,0.0,1561984070622.0
1561984039972,2667757.0,0.0,8.54,1.45,3.43,9.0,1.36,3.64,-1.96,-0.21,-0.77,993.97,0.0,1561984070672.0
1561984040023,2666370.0,0.0,8.86,1.24,3.57,8.98,1.39,3.69,-1.96,-0.21,-0.77,993.97,0.0,1561984070723.0
1561984040072,2664716.0,0.0,9.63,1.31,3.99,8.97,1.41,3.71,-1.96,-0.21,-0.77,993.96,0.0,1561984070772.0
1561984040123,2663727.0,0.0,9.25,1.65,4.14,8.99,1.35,3.68,-1.96,-0.21,-0.77,993.96,0.0,1561984070823.0
1561984040172,2663125.0,0.0,8.55,1.48,3.67,9.0,1.24,3.69,-1.96,-0.21,-0.77,993.96,0.0,1561984070872.0
1561984040223,2662909.0,0.0,8.38,0.84,3.04,8.99,1.2,3.73,-1.96,-0.21,-0.84,993.96,0.0,1561984070923.0
1561984040272,2663636.0,0.0,9.11,0.36,3.47,8.96,1.23,3.78,-1.96,-0.21,-0.84,993.95,0.0,1561984070972.0
1561984040323,2664240.0,0.0,9.04,0.88,4.01,8.97,1.26,3.76,-1.96,-0.21,-0.77,993.95,0.0,1561984071023.0
1561984040372,2665657.0,0.0,9.04,1.49,4.25,8.97,1.29,3.76,-1.96,-0.21,-0.77,993.95,0.0,1561984071072.0
1561984040423,2666773.0,0.0,9.43,1.56,3.71,8.96,1.32,3.76,-1.96,-0.21,-0.77,993.95,0.0,1561984071123.0
1561984040472,2667529.0,0.0,8.96,1.5,3.62,8.95,1.32,3.78,-1.89,-0.21,-0.77,993.94,0.0,1561984071172.0
1561984040524,2668216.0,0.0,8.29,1.49,3.47,8.95,1.28,3.8,-1.96,-0.21,-0.77,993.94,0.0,1561984071224.0
1561984040572,2669426.0,0.0,7.66,1.14,3.38,8.96,1.31,3.78,-1.96,-0.21,-0.84,993.94,0.0,1561984071272.0
1561984040623,2670295.0,0.0,8.22,0.87,3.52,8.91,1.33,3.86,-1.96,-0.21,-0.84,993.93,0.0,1561984071323.0
1561984040673,2668043.0,0.0,8.8,1.48,3.44,8.91,1.29,3.9,-1.96,-0.21,-0.77,993.93,0.0,1561984071373.0
1561984040724,2664991.0,0.0,8.29,1.46,4.27,8.89,1.24,3.96,-1.96,-0.21,-0.84,993.92,0.0,1561984071424.0
1561984040773,2661746.0,0.0,8.81,0.86,4.05,8.87,1.22,4.0,-1.96,-0.21,-0.77,993.92,0.0,1561984071473.0
1561984040823,2659069.0,0.0,8.91,0.92,4.42,8.87,1.17,4.02,-1.96,-0.21,-0.77,993.92,0.0,1561984071523.0
1561984040873,2657012.0,0.0,8.45,0.96,4.12,8.87,1.13,4.03,-1.96,-0.21,-0.77,993.92,0.0,1561984071573.0
1561984040924,2656280.0,0.0,8.93,0.83,4.09,8.86,1.12,4.05,-1.96,-0.21,-0.77,993.91,0.0,1561984071624.0
1561984040973,2656801.0,0.0,9.06,0.73,3.95,8.86,1.08,4.06,-1.96,-0.21,-0.77,993.91,0.0,1561984071673.0
1561984041024,2656935.0,0.0,8.89,1.08,4.18,8.87,1.03,4.04,-1.96,-0.21,-0.84,993.91,0.0,1561984071724.0
1561984041073,2657231.0,0.0,9.35,0.79,4.13,8.87,1.02,4.06,-1.96,-0.21,-0.77,993.9,0.0,1561984071773.0
1561984041124,2657790.0,0.0,9.33,0.65,3.86,8.88,0.98,4.05,-1.96,-0.21,-0.77,993.9,0.0,1561984071824.0
1561984041173,2658630.0,0.0,8.93,0.96,4.14,8.87,0.95,4.07,-1.89,-0.21,-0.77,993.89,0.0,1561984071873.0
1561984041224,2659196.0,0.0,9.11,0.68,3.8,8.86,0.95,4.1,-1.96,-0.21,-0.77,993.89,0.0,1561984071924.0
1561984041273,2660208.0,0.0,9.12,0.72,4.25,8.85,0.94,4.11,-1.96,-0.21,-0.77,993.89,0.0,1561984071973.0
1561984041324,2661612.0,0.0,8.94,0.9,4.28,8.86,0.93,4.09,-1.96,-0.21,-0.84,993.88,0.0,1561984072024.0
1561984041373,2662519.0,0.0,8.6,0.89,3.93,8.85,0.93,4.12,-1.96,-0.21,-0.84,993.88,0.0,1561984072073.0
1561984041425,2663688.0,0.0,8.68,0.75,3.64,8.85,0.94,4.12,-1.96,-0.21,-0.84,993.88,0.0,1561984072125.0
1561984041473,2664556.0,0.0,8.43,0.88,4.01,8.85,0.95,4.11,-1.96,-0.21,-0.77,993.88,0.0,1561984072173.0
1561984041524,2662810.0,0.0,8.6,1.0,3.89,8.85,0.95,4.12,-1.96,-0.28,-0.77,993.88,0.0,1561984072224.0
1561984041575,2660231.0,0.0,8.38,0.94,3.7,8.85,0.95,4.12,-1.96,-0.28,-0.84,993.88,0.0,1561984072275.0
1561984041625,2657828.0,0.0,8.03,0.89,3.68,8.84,0.94,4.14,-1.96,-0.21,-0.77,993.87,0.0,1561984072325.0
1561984041674,2655659.0,0.0,8.56,0.87,3.78,8.82,0.96,4.17,-1.96,-0.21,-0.77,993.87,0.0,1561984072374.0
1561984041725,2654085.0,0.0,8.68,0.9,4.12,8.82,0.96,4.18,-1.96,-0.21,-0.77,993.87,0.0,1561984072425.0
1561984041774,2653545.0,0.0,8.43,1.01,4.16,8.81,0.94,4.19,-1.96,-0.21,-0.77,993.87,0.0,1561984072474.0
1561984041824,2653260.0,0.0,8.14,0.89,3.84,8.81,0.94,4.21,-1.96,-0.21,-0.77,993.87,0.0,1561984072524.0
1561984041874,2653438.0,0.0,8.34,0.72,3.9,8.78,0.93,4.26,-1.96,-0.21,-0.84,993.86,0.0,1561984072574.0
1561984041925,2653455.0,0.0,8.62,0.92,4.14,8.77,0.92,4.3,-1.96,-0.21,-0.77,993.86,0.0,1561984072625.0
1561984041974,2654402.0,0.0,8.65,0.88,4.5,8.75,0.91,4.34,-1.96,-0.21,-0.77,993.86,0.0,1561984072674.0
1561984042026,2655403.0,0.0,8.55,0.77,4.37,8.73,0.89,4.39,-1.96,-0.21,-0.77,993.86,0.0,1561984072726.0
1561984042074,2656877.0,0.0,8.6,0.89,4.51,8.72,0.87,4.4,-1.96,-0.21,-0.77,993.86,0.0,1561984072774.0
1561984042125,2658103.0,0.0,8.6,0.73,4.59,8.71,0.86,4.42,-1.96,-0.21,-0.84,993.86,0.0,1561984072825.0
1561984042174,2659332.0,0.0,8.71,0.71,4.3,8.7,0.86,4.44,-1.96,-0.21,-0.77,993.86,0.0,1561984072874.0
1561984042226,2661628.0,0.0,8.83,0.72,4.48,8.7,0.85,4.44,-1.96,-0.21,-0.77,993.86,0.0,1561984072926.0
1561984042274,2663229.0,0.0,8.76,0.94,4.46,8.71,0.84,4.43,-1.96,-0.21,-0.77,993.86,0.0,1561984072974.0
1561984042326,2665478.0,0.0,8.84,0.69,4.32,8.71,0.84,4.43,-1.96,-0.21,-0.77,993.86,0.0,1561984073026.0
1561984042375,2667061.0,0.0,9.01,0.81,4.29,8.69,0.83,4.46,-1.96,-0.21,-0.77,993.86,0.0,1561984073075.0
1561984042425,2667070.0,0.0,9.49,0.87,4.64,8.69,0.85,4.47,-1.96,-0.21,-0.77,993.86,0.0,1561984073125.0
1561984042475,2666202.0,0.0,9.3,0.87,4.9,8.69,0.85,4.47,-1.96,-0.21,-0.77,993.86,0.0,1561984073175.0
1561984042525,2664769.0,0.0,8.91,0.96,4.47,8.68,0.84,4.48,-1.96,-0.21,-0.77,993.86,0.0,1561984073225.0
1561984042576,2662671.0,0.0,8.68,0.85,4.3,8.66,0.86,4.51,-1.96,-0.21,-0.84,993.86,0.0,1561984073276.0
1561984042626,2661487.0,0.0,8.77,0.83,4.44,8.66,0.86,4.53,-2.03,-0.21,-0.77,993.86,0.0,1561984073326.0
1561984042675,2661547.0,0.0,8.71,0.96,4.68,8.65,0.85,4.55,-1.96,-0.21,-0.84,993.86,0.0,1561984073375.0
1561984042726,2661566.0,0.0,8.63,0.9,4.47,8.63,0.85,4.58,-1.96,-0.21,-0.77,993.85,0.0,1561984073426.0
1561984042775,2662075.0,0.0,8.32,0.74,4.35,8.62,0.84,4.61,-1.96,-0.21,-0.77,993.85,0.0,1561984073475.0
1561984042825,2662672.0,0.0,8.19,0.77,4.45,8.61,0.84,4.62,-1.96,-0.21,-0.84,993.85,0.0,1561984073525.0
1561984042875,2663455.0,0.0,8.32,0.77,4.52,8.61,0.84,4.63,-1.89,-0.21,-0.77,993.84,0.0,1561984073575.0
1561984042926,2664462.0,0.0,8.17,0.81,4.35,8.61,0.85,4.62,-1.96,-0.21,-0.84,993.84,0.0,1561984073626.0
1561984042975,2665876.0,0.0,8.63,0.85,4.49,8.6,0.86,4.62,-1.96,-0.28,-0.77,993.84,0.0,1561984073675.0
1561984043026,2667165.0,0.0,8.84,0.92,4.52,8.61,0.89,4.61,-1.96,-0.21,-0.84,993.84,0.0,1561984073726.0
1561984043075,2668757.0,0.0,8.9,0.99,4.64,8.62,0.9,4.59,-1.96,-0.21,-0.77,993.83,0.0,1561984073775.0
1561984043127,2670211.0,0.0,8.69,1.08,4.37,8.64,0.9,4.56,-1.96,-0.21,-0.77,993.83,0.0,1561984073827.0
1561984043176,2672141.0,0.0,8.47,0.97,4.14,8.63,0.92,4.57,-1.96,-0.21,-0.77,993.83,0.0,1561984073876.0
1561984043227,2674135.0,0.0,9.17,0.92,4.39,8.62,0.97,4.57,-1.96,-0.21,-0.77,993.83,0.0,1561984073927.0
1561984043276,2676220.0,0.0,9.11,1.19,4.77,8.62,0.98,4.57,-1.96,-0.21,-0.77,993.82,0.0,1561984073976.0
1561984043326,2678455.0,0.0,8.86,1.38,4.59,8.61,0.99,4.59,-1.96,-0.21,-0.77,993.82,0.0,1561984074026.0
1561984043376,2680112.0,0.0,8.76,1.1,4.47,8.6,1.01,4.61,-1.96,-0.21,-0.77,993.82,0.0,1561984074076.0
1561984043426,2679301.0,0.0,8.8,1.08,4.74,8.58,1.01,4.64,-1.96,-0.21,-0.77,993.81,0.0,1561984074126.0
1561984043476,2677817.0,0.0,8.5,1.18,4.6,8.57,0.99,4.66,-1.89,-0.21,-0.77,993.81,0.0,1561984074176.0
1561984043527,2677035.0,0.0,7.94,0.92,4.44,8.57,0.97,4.68,-1.96,-0.21,-0.77,993.8,0.0,1561984074227.0
1561984043576,2676347.0,0.0,8.54,0.77,4.68,8.56,0.97,4.68,-1.96,-0.21,-0.77,993.8,0.0,1561984074276.0
1561984043627,2676339.0,0.0,9.0,0.87,4.85,8.56,0.96,4.69,-1.96,-0.21,-0.77,993.8,0.0,1561984074327.0
1561984043676,2677084.0,0.0,9.06,1.07,4.85,8.58,0.94,4.65,-1.96,-0.21,-0.77,993.79,0.0,1561984074376.0
1561984043727,2677690.0,0.0,8.49,0.87,4.51,8.59,0.93,4.65,-1.96,-0.21,-0.77,993.79,0.0,1561984074427.0
1561984043776,2678359.0,0.0,9.03,0.73,4.23,8.58,0.93,4.66,-1.96,-0.21,-0.77,993.79,0.0,1561984074476.0
1561984043826,2679231.0,0.0,9.7,0.93,4.79,8.58,0.93,4.65,-1.96,-0.21,-0.77,993.78,0.0,1561984074526.0
1561984043876,2680363.0,0.0,9.99,1.0,5.2,8.61,0.94,4.59,-1.96,-0.21,-0.77,993.78,0.0,1561984074576.0
1561984043927,2681838.0,0.0,9.6,1.14,4.82,8.65,0.92,4.53,-1.96,-0.21,-0.77,993.78,0.0,1561984074627.0
1561984043976,2683484.0,0.0,9.1,0.96,4.08,8.67,0.94,4.48,-1.96,-0.21,-0.77,993.77,0.0,1561984074676.0
1561984044027,2684723.0,0.0,9.23,0.83,4.01,8.69,0.99,4.43,-2.03,-0.21,-0.77,993.77,0.0,1561984074727.0
1561984044076,2685881.0,0.0,9.21,1.09,4.11,8.72,1.02,4.38,-1.96,-0.21,-0.77,993.77,0.0,1561984074776.0
1561984044128,2687469.0,0.0,9.04,1.38,4.12,8.73,1.08,4.34,-2.03,-0.21,-0.84,993.77,0.0,1561984074828.0
1561984044177,2689026.0,0.0,9.09,1.35,3.99,8.74,1.1,4.32,-1.96,-0.21,-0.84,993.77,0.0,1561984074877.0
1561984044227,2690496.0,0.0,8.67,1.49,3.92,8.74,1.06,4.32,-1.96,-0.21,-0.77,993.76,0.0,1561984074927.0
1561984044277,2691432.0,0.0,8.12,1.18,3.73,8.75,1.04,4.31,-1.96,-0.21,-0.77,993.76,0.0,1561984074977.0
1561984044327,2692473.0,0.0,8.01,0.65,3.77,8.74,1.07,4.32,-1.96,-0.21,-0.77,993.76,0.0,1561984075027.0
1561984044377,2691902.0,0.0,8.44,0.81,3.89,8.73,1.12,4.33,-1.89,-0.21,-0.77,993.76,0.0,1561984075077.0
1561984044428,2690954.0,0.0,8.37,1.26,4.19,8.72,1.11,4.35,-1.89,-0.21,-0.77,993.76,0.0,1561984075128.0
1561984044477,2690035.0,66.0,8.48,1.56,4.2,8.71,1.08,4.37,-2.03,-0.21,-0.77,993.75,0.0,1561984075177.0
1561984044527,2688838.0,65.0,8.62,1.0,4.32,8.72,1.06,4.35,-1.89,-0.21,-0.77,993.75,0.0,1561984075227.0
1561984044576,2687415.0,65.0,8.93,0.83,4.49,8.73,1.03,4.36,-1.96,-0.21,-0.77,993.75,0.0,1561984075276.0
1561984044627,2686911.0,65.0,9.39,0.95,4.32,8.73,1.0,4.35,-1.96,-0.21,-0.84,993.75,0.0,1561984075327.0
1561984044677,2687220.0,65.0,9.23,0.82,4.44,8.75,0.98,4.32,-1.96,-0.21,-0.77,993.74,0.0,1561984075377.0
1561984044727,2688325.0,65.0,8.89,0.74,4.17,8.74,0.97,4.34,-1.96,-0.21,-0.77,993.74,0.0,1561984075427.0
1561984044777,2689420.0,65.0,9.67,0.87,4.27,8.73,0.98,4.36,-1.96,-0.21,-0.77,993.73,0.0,1561984075477.0
1561984044826,2690717.0,65.0,9.95,1.04,4.91,8.73,1.0,4.35,-1.96,-0.28,-0.84,993.73,0.0,1561984075526.0
1561984044877,2692118.0,66.0,9.71,1.25,4.88,8.74,0.99,4.33,-1.96,-0.21,-0.77,993.72,0.0,1561984075577.0
1561984044927,2693894.0,66.0,8.69,1.09,4.11,8.69,0.99,4.44,-1.96,-0.21,-0.77,993.72,0.0,1561984075627.0
1561984044977,2695229.0,65.0,8.86,0.89,4.06,8.59,1.01,4.63,-2.03,-0.21,-0.84,993.71,0.0,1561984075677.0
1561984045027,2696648.0,65.0,8.65,1.02,5.44,8.57,0.88,4.69,-1.96,-0.21,-0.77,993.71,0.0,1561984075727.0
1561984045077,2698908.0,65.0,7.99,1.2,6.16,8.54,0.78,4.76,-1.96,-0.21,-0.77,993.71,0.0,1561984075777.0
1561984045128,2700995.0,65.0,8.02,-0.11,4.72,8.51,0.73,4.82,-1.96,-0.21,-0.77,993.7,0.0,1561984075828.0
1561984045177,2702638.0,65.0,7.9,-0.05,4.9,8.46,0.68,4.91,-1.89,-0.21,-0.84,993.7,0.0,1561984075877.0
1561984045228,2704574.0,65.0,6.96,-0.15,4.65,8.43,0.58,4.97,-2.03,-0.21,-0.77,993.69,0.0,1561984075928.0
1561984045277,2706416.0,65.0,6.48,-0.02,5.26,8.39,0.44,5.06,-1.96,-0.21,-0.84,993.69,0.0,1561984075977.0
1561984045328,2705033.0,65.0,6.09,-0.74,5.05,8.36,0.32,5.12,-1.96,-0.21,-0.77,993.69,0.0,1561984076028.0
1561984045377,2702368.0,65.0,6.65,-0.71,5.91,8.3,0.25,5.21,-1.96,-0.21,-0.77,993.68,0.0,1561984076077.0
1561984045427,2699736.0,65.0,7.96,-0.75,6.95,8.32,0.16,5.19,-1.96,-0.21,-0.77,993.68,0.0,1561984076127.0
1561984045477,2698573.0,65.0,6.99,-0.33,6.38,9.44,-0.01,2.66,-1.96,-0.21,-0.77,993.68,0.0,1561984076177.0
1561984045528,2696953.0,65.0,7.31,-0.58,6.97,6.62,-0.12,7.23,-1.96,-0.21,-0.77,993.67,0.0,1561984076228.0
1561984045577,2694835.0,65.0,6.31,-1.25,8.04,6.96,-0.17,6.9,-1.96,-0.21,-0.77,993.67,0.0,1561984076277.0
1561984045627,2692582.0,65.0,6.74,-1.2,7.34,7.02,-0.24,6.84,-1.96,-0.21,-0.84,993.66,0.0,1561984076327.0
1561984045677,2691511.0,65.0,6.96,-0.58,7.16,7.17,-0.26,6.69,-1.96,-0.28,-0.77,993.66,0.0,1561984076377.0
1561984045726,2691512.0,65.0,5.64,-0.71,6.92,7.18,-0.29,6.67,-1.96,-0.21,-0.84,993.66,0.0,1561984076426.0
1561984045777,2692858.0,65.0,7.87,-0.36,6.51,7.22,-0.36,6.63,-2.03,-0.21,-0.84,993.65,0.0,1561984076477.0
1561984045826,2696436.0,65.0,5.69,-0.59,6.7,7.21,-0.44,6.63,-1.96,-0.21,-0.77,993.65,0.0,1561984076526.0
1561984045877,2698794.0,65.0,6.65,-0.88,6.68,7.31,-0.42,6.53,-1.96,-0.21,-0.84,993.65,0.0,1561984076577.0
1561984045927,2700990.0,65.0,6.6,-1.05,6.79,7.3,-0.41,6.54,-1.96,-0.21,-0.84,993.65,0.0,1561984076627.0
1561984045977,2702332.0,65.0,8.27,-0.26,6.3,7.32,-0.39,6.52,-1.96,-0.21,-0.77,993.64,0.0,1561984076677.0
1561984046027,2701735.0,65.0,6.54,-0.25,6.79,7.37,-0.31,6.46,-1.96,-0.21,-0.77,993.64,0.0,1561984076727.0
1561984046077,2701226.0,65.0,7.08,-0.18,6.75,7.42,-0.27,6.41,-1.96,-0.21,-0.84,993.64,0.0,1561984076777.0
1561984046127,2700110.0,65.0,7.52,0.3,6.87,7.5,-0.21,6.31,-1.96,-0.21,-0.84,993.63,0.0,1561984076827.0
1561984046177,2698887.0,65.0,7.39,0.1,6.98,7.61,-0.16,6.18,-1.89,-0.21,-0.84,993.63,0.0,1561984076877.0
1561984046227,2697919.0,65.0,6.83,0.26,6.46,7.78,-0.12,5.97,-1.96,-0.21,-0.77,993.62,0.0,1561984076927.0
1561984046277,2696394.0,65.0,6.53,0.23,6.94,7.93,-0.1,5.77,-1.96,-0.21,-0.77,993.62,0.0,1561984076977.0
1561984046330,2693872.0,65.0,6.9,0.22,7.17,8.01,-0.09,5.65,-1.96,-0.21,-0.77,993.62,0.0,1561984077030.0
1561984046378,2690858.0,65.0,7.64,0.08,6.64,8.06,-0.09,5.59,-1.96,-0.21,-0.77,993.61,0.0,1561984077078.0
1561984046427,2687788.0,65.0,5.97,0.01,6.49,8.25,-0.07,5.3,-1.96,-0.21,-0.84,993.61,0.0,1561984077127.0
1561984046478,2685177.0,65.0,7.0,-0.06,6.46,8.29,-0.06,5.23,-1.89,-0.21,-0.84,993.61,0.0,1561984077178.0
1561984046528,2683194.0,65.0,6.35,0.12,6.73,8.63,-0.03,4.66,-1.96,-0.21,-0.77,993.61,0.0,1561984077228.0
1561984046578,2681784.0,65.0,6.53,-0.0,7.19,8.44,-0.05,4.99,-1.96,-0.21,-0.77,993.6,0.0,1561984077278.0
1561984046627,2679414.0,65.0,7.05,0.18,6.73,7.93,-0.11,5.76,-1.96,-0.21,-0.77,993.6,0.0,1561984077327.0
1561984046678,2678625.0,65.0,7.25,-0.18,6.32,7.93,-0.13,5.76,-1.96,-0.21,-0.77,993.6,0.0,1561984077378.0
1561984046728,2678232.0,65.0,6.69,-0.55,7.02,8.0,-0.11,5.67,-1.96,-0.21,-0.77,993.6,0.0,1561984077428.0
1561984046778,2677467.0,65.0,8.15,-0.32,7.18,7.86,-0.14,5.87,-1.96,-0.21,-0.84,993.59,0.0,1561984077478.0
1561984046827,2676357.0,65.0,7.08,0.0,7.0,7.81,-0.16,5.93,-1.89,-0.21,-0.84,993.59,0.0,1561984077527.0
1561984046878,2676103.0,65.0,6.6,-0.3,6.84,7.84,-0.16,5.89,-2.03,-0.21,-0.77,993.59,0.0,1561984077578.0
1561984046928,2675544.0,65.0,7.41,-0.27,6.89,7.96,-0.13,5.73,-1.89,-0.28,-0.77,993.59,0.0,1561984077628.0
1561984046978,2675845.0,65.0,7.93,-0.19,6.82,7.96,-0.13,5.73,-1.89,-0.21,-0.77,993.59,0.0,1561984077678.0
1561984047028,2675584.0,65.0,7.42,0.09,6.59,7.96,-0.13,5.73,-1.96,-0.28,-0.77,993.59,0.0,1561984077728.0
1561984047078,2675668.0,65.0,6.19,-0.07,6.51,8.16,-0.1,5.43,-1.96,-0.28,-0.84,993.58,0.0,1561984077778.0
1561984047129,2676283.0,64.0,7.24,-0.16,6.31,8.34,-0.07,5.15,-1.96,-0.28,-0.77,993.58,0.0,1561984077829.0
1561984047178,2676986.0,65.0,6.96,0.22,6.34,8.23,-0.08,5.32,-1.96,-0.21,-0.77,993.58,0.0,1561984077878.0
1561984047228,2676198.0,65.0,6.81,0.12,6.42,8.22,-0.09,5.35,-1.96,-0.21,-0.84,993.58,0.0,1561984077928.0
1561984047278,2674449.0,65.0,6.58,-0.16,6.66,8.24,-0.09,5.32,-1.96,-0.28,-0.84,993.58,0.0,1561984077978.0
1561984047331,2672436.0,65.0,7.65,-0.13,6.53,8.36,-0.07,5.13,-1.96,-0.21,-0.77,993.58,0.0,1561984078031.0
1561984047379,2670751.0,65.0,7.1,-0.05,6.79,8.73,-0.03,4.46,-1.96,-0.21,-0.84,993.57,0.0,1561984078079.0
1561984047429,2668803.0,65.0,8.03,0.03,6.49,8.89,-0.02,4.14,-1.96,-0.21,-0.77,993.57,0.0,1561984078129.0
1561984047479,2667042.0,65.0,7.54,0.28,6.97,8.65,-0.04,4.62,-1.96,-0.21,-0.84,993.57,0.0,1561984078179.0
1561984047528,2665691.0,65.0,7.99,0.08,6.61,9.01,-0.01,3.88,-1.96,-0.21,-0.77,993.56,0.0,1561984078228.0
1561984047579,2664047.0,65.0,7.09,-0.19,6.49,9.3,0.02,3.12,-1.96,-0.21,-0.84,993.56,0.0,1561984078279.0
1561984047629,2663548.0,64.0,7.42,0.21,6.04,9.44,0.03,2.64,-1.96,-0.21,-0.77,993.56,0.0,1561984078329.0
1561984047679,2662052.0,64.0,7.03,0.2,6.75,9.44,0.04,2.65,-1.96,-0.21,-0.77,993.55,0.0,1561984078379.0
1561984047729,2662221.0,65.0,8.77,0.28,6.58,9.57,0.06,2.15,-1.89,-0.21,-0.77,993.55,0.0,1561984078429.0
1561984047779,2661800.0,65.0,5.3,0.07,6.46,9.58,0.06,2.12,-1.89,-0.21,-0.77,993.55,0.0,1561984078479.0
1561984047828,2661098.0,65.0,7.7,0.21,6.14,9.36,0.02,2.93,-1.96,-0.21,-0.77,993.54,0.0,1561984078528.0
1561984047879,2660346.0,64.0,7.15,0.07,6.41,9.48,0.04,2.53,-1.89,-0.21,-0.77,993.54,0.0,1561984078579.0
1561984047929,2661454.0,64.0,7.13,-0.24,6.5,9.43,0.03,2.69,-1.89,-0.21,-0.77,993.53,0.0,1561984078629.0
1561984047979,2660674.0,65.0,6.37,0.14,6.29,9.54,0.05,2.26,-1.89,-0.21,-0.77,993.53,0.0,1561984078679.0
1561984048029,2661099.0,65.0,7.01,-0.03,5.69,9.59,0.06,2.04,-1.96,-0.21,-0.84,993.52,0.0,1561984078729.0
1561984048079,2661492.0,64.0,6.97,0.17,6.14,9.61,0.07,1.95,-1.96,-0.28,-0.84,993.52,0.0,1561984078779.0
1561984048130,2661890.0,64.0,7.8,0.15,6.55,9.61,0.08,1.95,-1.96,-0.21,-0.77,993.51,0.0,1561984078830.0
1561984048180,2660364.0,64.0,8.08,0.19,6.92,9.62,0.07,1.89,-1.96,-0.28,-0.77,993.5,0.0,1561984078880.0
1561984048230,2658495.0,64.0,7.55,0.17,6.11,5.43,0.05,8.17,-1.96,-0.21,-0.77,993.5,0.0,1561984078930.0
1561984048280,2655615.0,64.0,7.81,-0.05,6.61,5.62,0.06,8.04,-1.96,-0.21,-0.84,993.49,0.0,1561984078980.0
1561984048333,2653857.0,64.0,7.19,0.29,6.37,5.98,0.08,7.77,-1.96,-0.21,-0.84,993.48,0.0,1561984079033.0
1561984048380,2651996.0,64.0,7.61,0.17,6.39,5.84,0.07,7.87,-1.96,-0.21,-0.77,993.48,0.0,1561984079080.0
1561984048430,2650998.0,64.0,7.94,0.27,6.21,5.74,0.07,7.95,-1.89,-0.21,-0.77,993.47,0.0,1561984079130.0
1561984048480,2650180.0,64.0,7.2,0.04,6.16,5.6,0.06,8.05,-1.96,-0.21,-0.77,993.46,0.0,1561984079180.0
1561984048530,2649537.0,64.0,7.12,0.06,6.36,9.62,0.07,1.91,-1.96,-0.21,-0.84,993.46,0.0,1561984079230.0
1561984048581,2648741.0,64.0,6.69,0.05,6.42,5.62,0.06,8.04,-1.96,-0.21,-0.77,993.45,0.0,1561984079281.0
1561984048630,2648504.0,64.0,7.33,-0.12,6.52,5.39,0.05,8.2,-1.96,-0.21,-0.77,993.45,0.0,1561984079330.0
1561984048681,2647532.0,64.0,7.88,0.31,6.68,9.57,0.05,2.14,-1.89,-0.21,-0.77,993.44,0.0,1561984079381.0
1561984048730,2647013.0,64.0,7.4,-0.0,6.45,9.52,0.04,2.35,-1.96,-0.21,-0.84,993.44,0.0,1561984079430.0
1561984048781,2646339.0,64.0,6.7,-0.28,6.91,9.51,0.04,2.41,-1.89,-0.21,-0.84,993.44,0.0,1561984079481.0
1561984048829,2646429.0,64.0,9.08,-0.1,6.88,9.5,0.04,2.43,-1.89,-0.21,-0.77,993.43,0.0,1561984079529.0
1561984048881,2646972.0,64.0,6.72,0.02,6.1,9.51,0.04,2.4,-1.96,-0.21,-0.84,993.43,0.0,1561984079581.0
1561984048931,2647937.0,64.0,6.98,0.03,6.2,9.6,0.06,2.0,-1.96,-0.21,-0.84,993.42,0.0,1561984079631.0
1561984048981,2648121.0,64.0,8.01,0.04,6.99,9.57,0.05,2.15,-1.96,-0.28,-0.77,993.42,0.0,1561984079681.0
1561984049030,2649847.0,64.0,9.17,0.4,7.02,9.61,0.06,1.97,-1.96,-0.28,-0.77,993.41,0.0,1561984079730.0
1561984049081,2650259.0,64.0,6.74,-0.01,6.53,9.62,0.08,1.89,-1.96,-0.21,-0.84,993.41,0.0,1561984079781.0
1561984049131,2648749.0,64.0,7.99,0.13,6.58,5.46,0.05,8.14,-1.96,-0.21,-0.77,993.4,0.0,1561984079831.0
1561984049181,2646799.0,64.0,8.18,0.31,6.35,9.62,0.08,1.92,-1.96,-0.21,-0.77,993.4,0.0,1561984079881.0
1561984049231,2645133.0,64.0,7.69,0.17,6.66,5.45,0.05,8.15,-2.03,-0.21,-0.77,993.39,0.0,1561984079931.0
1561984049281,2643423.0,64.0,7.31,0.03,6.43,5.49,0.05,8.12,-1.96,-0.21,-0.77,993.39,0.0,1561984079981.0
1561984049333,2641543.0,64.0,7.26,0.14,6.2,5.87,0.08,7.85,-1.89,-0.21,-0.77,993.38,0.0,1561984080033.0
1561984049381,2640669.0,64.0,6.67,0.11,5.94,5.93,0.09,7.81,-1.96,-0.21,-0.77,993.38,0.0,1561984080081.0
1561984049431,2639155.0,64.0,7.17,0.29,6.33,6.07,0.1,7.7,-1.96,-0.21,-0.84,993.38,0.0,1561984080131.0
1561984049481,2638034.0,64.0,7.28,0.16,6.48,5.78,0.08,7.92,-1.96,-0.21,-0.77,993.37,0.0,1561984080181.0
1561984049531,2637447.0,64.0,7.12,0.23,6.47,5.79,0.08,7.92,-1.96,-0.21,-0.84,993.37,0.0,1561984080231.0
1561984049581,2637428.0,63.0,6.15,-0.1,6.16,5.74,0.08,7.95,-1.96,-0.28,-0.77,993.36,0.0,1561984080281.0
1561984049631,2637711.0,63.0,7.99,0.1,6.53,5.53,0.06,8.1,-1.89,-0.21,-0.77,993.36,0.0,1561984080331.0
1561984049681,2637651.0,64.0,8.3,0.17,7.01,9.63,0.07,1.87,-1.96,-0.21,-0.77,993.35,0.0,1561984080381.0
1561984049731,2638098.0,64.0,6.64,0.01,6.48,9.63,0.07,1.84,-1.96,-0.21,-0.77,993.35,0.0,1561984080431.0
1561984049781,2638213.0,64.0,7.92,-0.19,6.14,9.63,0.08,1.88,-1.89,-0.21,-0.77,993.35,0.0,1561984080481.0
1561984049830,2638611.0,63.0,7.37,0.07,6.11,9.61,0.07,1.96,-1.96,-0.21,-0.77,993.34,0.0,1561984080530.0
1561984049881,2639629.0,63.0,7.64,0.11,7.02,9.6,0.08,2.01,-1.96,-0.21,-0.77,993.34,0.0,1561984080581.0
1561984049931,2639618.0,64.0,6.23,0.02,6.36,5.4,0.06,8.18,-1.96,-0.21,-0.84,993.33,0.0,1561984080631.0
1561984049981,2640383.0,64.0,7.53,0.23,6.21,5.68,0.08,7.99,-1.96,-0.21,-0.77,993.33,0.0,1561984080681.0
1561984050031,2640656.0,63.0,5.44,0.28,5.9,5.46,0.07,8.15,-1.89,-0.21,-0.77,993.33,0.0,1561984080731.0
1561984050081,2638698.0,63.0,7.43,0.23,6.34,5.72,0.08,7.96,-1.89,-0.21,-0.77,993.32,0.0,1561984080781.0
1561984050132,2636430.0,63.0,5.56,0.01,5.97,6.01,0.11,7.75,-2.03,-0.21,-0.77,993.32,0.0,1561984080832.0
1561984050182,2633965.0,64.0,8.16,0.24,6.51,6.19,0.12,7.61,-1.89,-0.21,-0.77,993.31,0.0,1561984080882.0
1561984050231,2631431.0,64.0,7.37,0.31,6.46,9.59,0.08,2.06,-1.89,-0.21,-0.77,993.31,0.0,1561984080931.0
1561984050282,2629774.0,63.0,7.22,0.24,5.89,9.6,0.09,1.98,-2.03,-0.21,-0.84,993.3,0.0,1561984080982.0
1561984050335,2629089.0,63.0,6.57,-0.43,6.44,5.8,0.08,7.91,-1.89,-0.21,-0.84,993.3,0.0,1561984081035.0
1561984050382,2627929.0,63.0,9.03,0.13,6.53,6.21,0.11,7.59,-1.89,-0.21,-0.77,993.3,0.0,1561984081082.0
1561984050432,2627228.0,63.0,8.14,0.32,6.32,6.0,0.09,7.76,-1.96,-0.21,-0.77,993.29,0.0,1561984081132.0
1561984050482,2626787.0,63.0,8.01,0.38,6.35,6.01,0.08,7.75,-1.96,-0.21,-0.77,993.29,0.0,1561984081182.0
1561984050532,2626424.0,63.0,7.41,-0.02,6.36,5.99,0.08,7.77,-2.03,-0.21,-0.77,993.28,0.0,1561984081232.0
1561984050582,2626685.0,63.0,7.9,0.09,6.08,6.38,0.12,7.45,-1.96,-0.21,-0.77,993.28,0.0,1561984081282.0
1561984050632,2627158.0,63.0,7.46,0.11,6.4,6.11,0.09,7.67,-1.96,-0.21,-0.84,993.28,0.0,1561984081332.0
1561984050682,2627380.0,63.0,7.23,0.42,6.06,5.76,0.06,7.93,-2.03,-0.21,-0.77,993.27,0.0,1561984081382.0
1561984050732,2627854.0,63.0,7.18,-0.07,6.46,9.66,0.08,1.71,-1.89,-0.21,-0.77,993.27,0.0,1561984081432.0
1561984050782,2627676.0,63.0,8.26,-0.11,6.06,9.64,0.06,1.82,-1.96,-0.21,-0.77,993.26,0.0,1561984081482.0
1561984050831,2628281.0,63.0,6.46,-0.26,5.8,9.07,-0.01,3.72,-2.03,-0.21,-0.77,993.26,0.0,1561984081531.0
1561984050882,2628763.0,63.0,7.4,-0.11,6.33,8.8,-0.05,4.33,-1.96,-0.21,-0.77,993.25,0.0,1561984081582.0
1561984050932,2630571.0,63.0,7.99,-0.59,6.26,8.64,-0.06,4.63,-1.96,-0.21,-0.77,993.25,0.0,1561984081632.0
1561984050982,2630073.0,63.0,8.27,-0.31,6.09,8.55,-0.08,4.8,-1.96,-0.21,-0.77,993.24,0.0,1561984081682.0
1561984051032,2627407.0,63.0,6.58,-0.17,6.05,8.79,-0.04,4.35,-1.96,-0.14,-0.77,993.24,0.0,1561984081732.0
1561984051082,2624254.0,63.0,7.68,-0.19,6.13,8.84,-0.04,4.24,-1.96,-0.21,-0.77,993.24,0.0,1561984081782.0
1561984051132,2622900.0,63.0,6.78,0.19,5.86,8.96,-0.02,3.99,-1.96,-0.21,-0.77,993.23,0.0,1561984081832.0
1561984051183,2621037.0,63.0,7.06,0.02,6.11,9.03,-0.02,3.82,-1.96,-0.21,-0.84,993.23,0.0,1561984081883.0
1561984051232,2619895.0,63.0,7.29,0.08,6.51,9.4,0.02,2.81,-1.96,-0.21,-0.77,993.23,0.0,1561984081932.0
1561984051283,2619468.0,63.0,8.5,0.03,6.17,9.47,0.03,2.55,-1.96,-0.21,-0.77,993.22,0.0,1561984081983.0
1561984051336,2618722.0,63.0,8.39,0.28,6.12,9.58,0.04,2.09,-1.89,-0.21,-0.77,993.22,0.0,1561984082036.0
1561984051383,2618471.0,63.0,8.1,0.08,6.27,9.3,0.01,3.11,-1.96,-0.21,-0.77,993.21,0.0,1561984082083.0
1561984051432,2619054.0,63.0,7.15,0.15,5.98,8.92,-0.03,4.08,-1.96,-0.21,-0.77,993.21,0.0,1561984082132.0
1561984051483,2619928.0,63.0,7.44,-0.23,6.34,9.24,0.0,3.29,-1.96,-0.21,-0.84,993.2,0.0,1561984082183.0
1561984051533,2620271.0,63.0,7.74,-0.3,6.33,9.59,0.04,2.07,-1.96,-0.21,-0.77,993.2,0.0,1561984082233.0
1561984051583,2620837.0,63.0,7.75,0.23,6.27,9.67,0.07,1.6,-1.96,-0.21,-0.77,993.19,0.0,1561984082283.0
1561984051634,2620772.0,63.0,7.42,0.33,6.27,9.67,0.06,1.62,-1.96,-0.21,-0.77,993.18,0.0,1561984082334.0
1561984051684,2620653.0,63.0,7.06,0.32,5.97,5.71,0.06,7.97,-1.96,-0.21,-0.84,993.17,0.0,1561984082384.0
1561984051733,2620873.0,63.0,8.14,-0.0,6.55,6.28,0.1,7.53,-1.96,-0.21,-0.77,993.17,0.0,1561984082433.0
1561984051784,2621039.0,63.0,7.77,0.39,6.66,6.51,0.14,7.33,-1.96,-0.21,-0.77,993.16,0.0,1561984082484.0
1561984051833,2621615.0,63.0,7.79,0.45,6.43,6.53,0.14,7.32,-1.96,-0.21,-0.77,993.16,0.0,1561984082533.0
1561984051884,2622068.0,63.0,7.51,0.45,6.78,6.63,0.16,7.23,-1.89,-0.21,-0.77,993.15,0.0,1561984082584.0
1561984051934,2620914.0,63.0,8.65,0.34,6.86,6.43,0.14,7.4,-1.96,-0.21,-0.77,993.15,0.0,1561984082634.0
1561984051984,2617886.0,63.0,7.54,0.3,6.24,6.35,0.12,7.47,-1.96,-0.21,-0.77,993.14,0.0,1561984082684.0
1561984052034,2614916.0,63.0,6.35,-0.11,5.96,6.45,0.13,7.39,-1.96,-0.21,-0.77,993.13,0.0,1561984082734.0
1561984052084,2611617.0,63.0,7.29,0.06,6.18,6.37,0.12,7.45,-1.96,-0.21,-0.84,993.13,0.0,1561984082784.0
1561984052134,2609981.0,63.0,7.78,0.23,6.25,6.07,0.09,7.7,-1.96,-0.21,-0.77,993.12,0.0,1561984082834.0
1561984052184,2608095.0,63.0,7.6,0.05,5.99,6.22,0.1,7.58,-1.96,-0.21,-0.77,993.11,0.0,1561984082884.0
1561984052235,2607263.0,63.0,7.81,-0.11,5.99,6.0,0.08,7.76,-1.96,-0.21,-0.77,993.11,0.0,1561984082935.0
1561984052284,2607071.0,63.0,7.25,0.24,6.21,6.31,0.11,7.51,-1.96,-0.21,-0.77,993.1,0.0,1561984082984.0
1561984052338,2607505.0,63.0,7.91,-0.04,6.12,5.95,0.07,7.8,-1.96,-0.21,-0.77,993.09,0.0,1561984083038.0
1561984052385,2608091.0,63.0,8.07,0.34,6.46,5.91,0.07,7.82,-1.96,-0.28,-0.77,993.09,0.0,1561984083085.0
1561984052434,2608808.0,63.0,8.07,-0.12,6.99,9.68,0.07,1.6,-1.96,-0.21,-0.77,993.08,0.0,1561984083134.0
1561984052485,2609361.0,63.0,8.6,0.07,6.39,9.6,0.05,2.0,-1.89,-0.21,-0.77,993.07,0.0,1561984083185.0
1561984052535,2610505.0,63.0,6.98,-0.16,6.21,9.24,0.01,3.27,-2.03,-0.21,-0.77,993.07,0.0,1561984083235.0
1561984052586,2611446.0,63.0,7.62,-0.24,6.7,9.19,0.0,3.43,-1.96,-0.21,-0.77,993.06,0.0,1561984083286.0
1561984052634,2613286.0,63.0,7.91,-0.32,7.11,9.25,0.01,3.25,-1.89,-0.21,-0.77,993.05,0.0,1561984083334.0
1561984052684,2614639.0,63.0,7.99,-0.04,6.72,8.87,-0.03,4.18,-1.96,-0.21,-0.77,993.05,0.0,1561984083384.0
1561984052734,2616244.0,63.0,7.09,0.05,6.32,9.14,-0.0,3.55,-1.96,-0.14,-0.77,993.04,0.0,1561984083434.0
1561984052784,2617742.0,63.0,8.11,-0.33,6.15,9.14,-0.0,3.54,-1.96,-0.21,-0.77,993.04,0.0,1561984083484.0
1561984052834,2619831.0,63.0,8.14,0.19,6.36,9.61,0.05,1.94,-1.89,-0.21,-0.84,993.03,0.0,1561984083534.0
1561984052885,2620990.0,63.0,6.85,0.0,5.98,9.66,0.06,1.68,-1.96,-0.21,-0.77,993.03,0.0,1561984083585.0
1561984052934,2620013.0,63.0,7.9,0.43,6.15,9.63,0.05,1.87,-1.96,-0.21,-0.77,993.03,0.0,1561984083634.0
1561984052985,2619667.0,63.0,6.48,0.28,5.38,9.68,0.08,1.57,-1.89,-0.21,-0.77,993.02,0.0,1561984083685.0
1561984053034,2618072.0,63.0,6.04,-0.07,5.39,9.68,0.08,1.58,-1.96,-0.28,-0.84,993.02,0.0,1561984083734.0
1561984053085,2615596.0,63.0,8.04,0.32,5.62,9.67,0.08,1.65,-1.96,-0.21,-0.77,993.01,0.0,1561984083785.0
1561984053135,2613718.0,63.0,6.51,0.05,5.88,6.14,0.09,7.65,-1.96,-0.21,-0.77,993.01,0.0,1561984083835.0
1561984053185,2612988.0,63.0,5.75,0.16,5.73,6.55,0.13,7.3,-1.96,-0.21,-0.77,993.01,0.0,1561984083885.0
1561984053235,2611403.0,63.0,8.07,0.47,5.86,6.12,0.08,7.66,-1.96,-0.21,-0.77,993.0,0.0,1561984083935.0
1561984053285,2610850.0,63.0,8.29,0.44,6.16,9.68,0.07,1.54,-1.96,-0.21,-0.77,993.0,0.0,1561984083985.0
1561984053337,2609697.0,63.0,7.47,-0.19,5.95,9.58,0.04,2.08,-1.96,-0.21,-0.77,992.99,0.0,1561984084037.0
1561984053385,2609308.0,63.0,7.37,-0.33,6.37,9.39,0.02,2.84,-1.96,-0.21,-0.84,992.99,0.0,1561984084085.0
1561984053435,2609626.0,63.0,8.24,-0.25,6.32,9.12,-0.01,3.61,-1.96,-0.21,-0.84,992.99,0.0,1561984084135.0
1561984053485,2610749.0,63.0,8.06,-0.18,6.38,9.05,-0.02,3.77,-1.96,-0.21,-0.77,992.99,0.0,1561984084185.0
1561984053536,2611107.0,63.0,7.72,-0.2,7.09,8.92,-0.03,4.08,-1.96,-0.21,-0.77,992.98,0.0,1561984084236.0
1561984053586,2611165.0,63.0,8.57,-0.13,7.07,8.68,-0.06,4.56,-1.89,-0.21,-0.77,992.98,0.0,1561984084286.0
1561984053635,2612495.0,63.0,7.75,-0.14,6.33,8.94,-0.03,4.02,-1.96,-0.21,-0.84,992.98,0.0,1561984084335.0
1561984053685,2612757.0,63.0,7.23,-0.26,6.25,9.11,-0.01,3.63,-1.89,-0.21,-0.77,992.97,0.0,1561984084385.0
1561984053736,2613695.0,63.0,7.26,0.22,6.52,9.58,0.04,2.09,-1.96,-0.21,-0.77,992.97,0.0,1561984084436.0
1561984053785,2614727.0,63.0,9.26,0.23,6.5,8.88,-0.03,4.17,-1.96,-0.21,-0.77,992.97,0.0,1561984084485.0
1561984053835,2614069.0,63.0,8.25,0.45,6.58,8.44,-0.08,5.0,-1.96,-0.21,-0.77,992.96,0.0,1561984084535.0
1561984053886,2611702.0,63.0,6.54,-0.52,6.58,8.92,-0.02,4.08,-1.96,-0.21,-0.84,992.96,0.0,1561984084586.0
1561984053936,2610145.0,63.0,7.16,-0.44,6.69,9.61,0.04,1.94,-1.96,-0.21,-0.84,992.96,0.0,1561984084636.0
1561984053986,2609765.0,63.0,7.8,0.39,5.38,9.23,0.0,3.32,-1.96,-0.21,-0.77,992.96,0.0,1561984084686.0
1561984054037,2608444.0,63.0,8.0,0.48,5.79,8.43,-0.07,5.01,-1.96,-0.21,-0.84,992.95,0.0,1561984084737.0
1561984054086,2609271.0,63.0,6.36,-0.23,6.3,8.82,-0.03,4.28,-1.96,-0.21,-0.84,992.95,0.0,1561984084786.0
1561984054137,2608756.0,63.0,7.04,-0.56,6.28,9.51,0.02,2.39,-1.96,-0.21,-0.77,992.95,0.0,1561984084837.0
1561984054186,2609960.0,63.0,7.75,0.31,5.78,9.68,0.05,1.55,-1.96,-0.21,-0.84,992.94,0.0,1561984084886.0
1561984054236,2610361.0,63.0,7.75,0.4,5.83,6.26,0.08,7.55,-1.96,-0.21,-0.77,992.94,0.0,1561984084936.0
1561984054286,2611544.0,63.0,7.91,0.31,5.92,6.5,0.09,7.34,-1.96,-0.21,-0.77,992.94,0.0,1561984084986.0
1561984054339,2612817.0,63.0,7.39,0.47,5.97,6.38,0.09,7.45,-1.96,-0.21,-0.84,992.94,0.0,1561984085039.0
1561984054386,2613780.0,63.0,9.88,0.44,6.1,6.0,0.06,7.75,-1.89,-0.21,-0.84,992.94,0.0,1561984085086.0
1561984054437,2615374.0,63.0,6.75,0.09,5.33,5.97,0.06,7.78,-1.96,-0.21,-0.77,992.94,0.0,1561984085137.0
1561984054486,2617322.0,63.0,8.14,-0.1,6.08,6.15,0.08,7.63,-1.96,-0.21,-0.84,992.93,0.0,1561984085186.0
1561984054536,2618395.0,63.0,7.59,0.1,6.29,5.95,0.07,7.8,-1.96,-0.21,-0.84,992.93,0.0,1561984085236.0
1561984054586,2621255.0,63.0,9.57,0.38,6.92,5.68,0.05,8.0,-1.96,-0.21,-0.77,992.93,0.0,1561984085286.0
1561984054637,2621693.0,63.0,6.43,0.04,6.24,5.72,0.05,7.96,-1.96,-0.21,-0.77,992.93,0.0,1561984085337.0
1561984054686,2621846.0,63.0,7.37,-0.02,5.62,6.33,0.1,7.49,-1.96,-0.14,-0.77,992.93,0.0,1561984085386.0
1561984054736,2622713.0,63.0,8.8,0.2,6.5,6.34,0.12,7.48,-1.96,-0.21,-0.84,992.93,0.0,1561984085436.0
1561984054787,2622728.0,63.0,8.18,0.52,6.94,6.87,0.2,6.99,-1.96,-0.21,-0.77,992.93,0.0,1561984085487.0
1561984054836,2620162.0,63.0,5.25,0.38,5.99,7.05,0.24,6.82,-1.96,-0.21,-0.77,992.93,0.0,1561984085536.0
1561984054887,2618520.0,63.0,8.16,0.81,5.96,7.25,0.33,6.59,-1.96,-0.28,-0.77,992.93,0.0,1561984085587.0
1561984054938,2617203.0,63.0,9.87,1.07,6.64,7.21,0.37,6.63,-1.96,-0.21,-0.77,992.92,0.0,1561984085638.0
1561984054987,2615761.0,63.0,8.34,1.08,6.2,7.23,0.38,6.62,-1.96,-0.21,-0.77,992.92,0.0,1561984085687.0
1561984055036,2613264.0,63.0,6.48,0.67,6.2,7.27,0.41,6.57,-1.96,-0.21,-0.77,992.92,0.0,1561984085736.0
1561984055087,2613076.0,63.0,7.41,0.43,5.95,7.26,0.4,6.58,-1.96,-0.21,-0.77,992.92,0.0,1561984085787.0
1561984055137,2613304.0,63.0,9.08,1.02,6.63,7.31,0.49,6.52,-1.96,-0.21,-0.77,992.92,0.0,1561984085837.0
1561984055187,2613874.0,63.0,7.35,0.38,6.2,7.35,0.49,6.48,-1.96,-0.21,-0.77,992.92,0.0,1561984085887.0
1561984055238,2613942.0,63.0,7.45,1.21,6.17,7.34,0.47,6.49,-1.96,-0.21,-0.84,992.92,0.0,1561984085938.0
1561984055287,2614093.0,63.0,8.48,0.54,6.27,7.28,0.46,6.55,-1.96,-0.21,-0.84,992.92,0.0,1561984085987.0
1561984055340,2614139.0,63.0,8.88,0.17,6.34,7.28,0.48,6.56,-1.96,-0.21,-0.77,992.92,0.0,1561984086040.0
1561984055387,2615186.0,63.0,7.1,0.38,6.54,7.25,0.51,6.58,-1.96,-0.21,-0.77,992.93,0.0,1561984086087.0
1561984055437,2614851.0,63.0,7.33,0.65,6.29,7.2,0.49,6.64,-1.96,-0.21,-0.77,992.93,0.0,1561984086137.0
1561984055488,2615468.0,63.0,7.16,0.77,6.49,7.27,0.53,6.56,-1.89,-0.21,-0.77,992.93,0.0,1561984086188.0
1561984055538,2616712.0,63.0,7.14,0.34,6.69,7.32,0.57,6.5,-1.96,-0.21,-0.77,992.93,0.0,1561984086238.0
1561984055588,2616944.0,63.0,7.86,0.92,6.09,7.29,0.56,6.54,-1.96,-0.21,-0.84,992.93,0.0,1561984086288.0
1561984055638,2617518.0,63.0,7.76,0.95,6.03,7.21,0.54,6.63,-1.96,-0.21,-0.84,992.93,0.0,1561984086338.0
1561984055688,2618571.0,63.0,7.31,0.45,6.47,7.22,0.53,6.61,-1.96,-0.21,-0.77,992.94,0.0,1561984086388.0
1561984055738,2619980.0,63.0,6.6,0.41,6.82,7.19,0.54,6.65,-1.96,-0.21,-0.84,992.94,0.0,1561984086438.0
1561984055788,2619374.0,63.0,7.66,0.45,6.13,7.08,0.46,6.77,-1.96,-0.21,-0.77,992.94,0.0,1561984086488.0
1561984055837,2618158.0,63.0,6.81,0.59,6.36,7.03,0.41,6.82,-1.96,-0.21,-0.77,992.94,0.0,1561984086537.0
1561984055888,2617803.0,63.0,5.93,-0.08,6.95,7.02,0.39,6.83,-1.96,-0.21,-0.77,992.94,0.0,1561984086588.0
1561984055938,2616956.0,63.0,7.49,0.01,6.75,6.92,0.33,6.94,-1.96,-0.21,-0.77,992.94,0.0,1561984086638.0
1561984055988,2617068.0,63.0,7.37,0.24,6.3,6.8,0.26,7.06,-1.96,-0.21,-0.77,992.94,0.0,1561984086688.0
1561984056038,2618065.0,63.0,6.2,-0.08,6.68,6.69,0.2,7.17,-1.96,-0.21,-0.84,992.94,0.0,1561984086738.0
1561984056088,2619162.0,63.0,6.56,-0.3,6.04,6.57,0.17,7.27,-1.96,-0.21,-0.77,992.94,0.0,1561984086788.0
1561984056139,2620080.0,63.0,7.29,-0.15,5.59,6.36,0.13,7.46,-1.96,-0.21,-0.77,992.95,0.0,1561984086839.0
1561984056188,2621624.0,63.0,6.82,-0.06,5.72,6.21,0.11,7.59,-1.89,-0.21,-0.77,992.95,0.0,1561984086888.0
1561984056238,2623322.0,63.0,7.32,-0.12,6.56,6.34,0.12,7.48,-1.96,-0.21,-0.77,992.95,0.0,1561984086938.0
1561984056288,2625570.0,63.0,7.56,-0.01,6.41,6.53,0.14,7.31,-1.96,-0.21,-0.77,992.95,0.0,1561984086988.0
1561984056340,2627180.0,63.0,7.27,0.21,5.66,6.39,0.12,7.44,-1.96,-0.21,-0.84,992.96,0.0,1561984087040.0
1561984056388,2628533.0,63.0,8.15,0.29,5.97,6.2,0.1,7.6,-1.96,-0.21,-0.84,992.96,0.0,1561984087088.0
1561984056438,2631059.0,63.0,7.68,-0.01,6.21,6.58,0.13,7.27,-1.96,-0.21,-0.84,992.96,0.0,1561984087138.0
1561984056488,2633121.0,63.0,7.14,-0.01,6.16,6.53,0.12,7.31,-1.96,-0.21,-0.77,992.96,0.0,1561984087188.0
1561984056538,2633620.0,63.0,8.09,0.45,6.08,6.34,0.11,7.48,-1.96,-0.28,-0.77,992.96,0.0,1561984087238.0
1561984056588,2634363.0,63.0,8.04,0.05,5.64,5.98,0.08,7.77,-1.96,-0.28,-0.84,992.96,0.0,1561984087288.0
1561984056638,2635018.0,63.0,5.32,0.05,6.28,6.17,0.1,7.62,-1.96,-0.21,-0.77,992.96,0.0,1561984087338.0
1561984056688,2634898.0,63.0,8.32,-0.27,6.93,6.38,0.13,7.45,-1.96,-0.21,-0.77,992.96,0.0,1561984087388.0
1561984056738,2634256.0,63.0,9.05,0.49,7.0,6.35,0.12,7.47,-1.96,-0.21,-0.77,992.97,0.0,1561984087438.0
1561984056788,2633153.0,63.0,6.4,0.49,5.28,6.26,0.11,7.55,-1.96,-0.21,-0.77,992.97,0.0,1561984087488.0
1561984056837,2630468.0,63.0,7.73,0.11,6.33,6.39,0.12,7.44,-1.96,-0.21,-0.77,992.97,0.0,1561984087537.0
1561984056889,2630769.0,63.0,9.25,0.05,6.29,6.52,0.16,7.32,-1.96,-0.21,-0.84,992.98,0.0,1561984087589.0
1561984056938,2630261.0,63.0,7.9,0.22,6.11,6.61,0.17,7.25,-1.96,-0.21,-0.77,992.98,0.0,1561984087638.0
1561984056989,2631148.0,63.0,6.4,0.41,6.29,6.77,0.19,7.09,-1.96,-0.21,-0.77,992.98,0.0,1561984087689.0
1561984057039,2631984.0,63.0,9.91,0.36,6.24,6.67,0.18,7.19,-1.96,-0.21,-0.77,992.98,0.0,1561984087739.0
1561984057089,2633370.0,63.0,8.18,0.38,6.05,6.69,0.18,7.17,-1.96,-0.21,-0.77,992.99,0.0,1561984087789.0
1561984057139,2633581.0,63.0,6.29,0.1,5.96,6.87,0.2,6.99,-1.96,-0.21,-0.84,992.99,0.0,1561984087839.0
1561984057189,2633440.0,63.0,7.54,0.17,5.86,6.79,0.2,7.08,-1.96,-0.21,-0.77,992.99,0.0,1561984087889.0
1561984057239,2634888.0,63.0,7.56,0.39,5.51,6.78,0.2,7.08,-1.96,-0.21,-0.77,992.99,0.0,1561984087939.0
1561984057289,2636265.0,63.0,6.17,0.18,6.12,6.86,0.2,7.01,-1.96,-0.21,-0.77,992.99,0.0,1561984087989.0
1561984057342,2636817.0,63.0,7.56,0.21,6.3,7.01,0.23,6.85,-1.96,-0.21,-0.77,993.0,0.0,1561984088042.0
1561984057389,2638401.0,63.0,8.35,0.27,6.07,7.01,0.23,6.85,-1.96,-0.21,-0.77,993.0,0.0,1561984088089.0
1561984057439,2639700.0,63.0,8.28,0.44,5.88,7.02,0.23,6.85,-1.96,-0.21,-0.77,993.0,0.0,1561984088139.0
1561984057489,2639943.0,63.0,6.56,0.36,5.27,6.87,0.19,7.0,-1.96,-0.21,-0.77,993.0,0.0,1561984088189.0
1561984057539,2640853.0,63.0,8.09,0.21,6.17,6.83,0.19,7.03,-1.96,-0.21,-0.77,993.01,0.0,1561984088239.0
1561984057590,2641452.0,63.0,7.7,-0.12,6.54,6.91,0.22,6.95,-1.96,-0.21,-0.84,993.01,0.0,1561984088290.0
1561984057640,2641766.0,63.0,6.59,0.27,6.25,6.87,0.2,6.99,-2.03,-0.21,-0.77,993.01,0.0,1561984088340.0
1561984057689,2641103.0,63.0,7.1,0.44,6.03,6.74,0.17,7.13,-1.96,-0.21,-0.84,993.01,0.0,1561984088389.0
1561984057739,2639363.0,63.0,8.63,0.02,6.07,6.81,0.18,7.06,-1.96,-0.21,-0.77,993.01,0.0,1561984088439.0
1561984057790,2636918.0,63.0,6.69,0.02,6.39,6.92,0.2,6.94,-1.96,-0.21,-0.77,993.02,0.0,1561984088490.0
1561984057838,2633937.0,63.0,9.18,0.44,6.16,6.94,0.2,6.93,-1.96,-0.21,-0.84,993.02,0.0,1561984088538.0
1561984057890,2632495.0,63.0,8.33,0.35,6.05,7.07,0.23,6.79,-1.89,-0.21,-0.77,993.02,0.0,1561984088590.0
1561984057940,2632295.0,63.0,7.58,0.24,6.04,7.12,0.25,6.74,-1.96,-0.21,-0.84,993.02,0.0,1561984088640.0
1561984057990,2630551.0,63.0,8.23,0.46,6.01,7.12,0.26,6.73,-1.96,-0.28,-0.77,993.02,0.0,1561984088690.0
1561984058039,2629851.0,63.0,7.73,0.43,6.22,7.2,0.3,6.65,-1.96,-0.21,-0.84,993.03,0.0,1561984088739.0
1561984058090,2629235.0,63.0,7.97,0.34,6.5,7.27,0.35,6.57,-1.96,-0.21,-0.77,993.03,0.0,1561984088790.0
1561984058140,2628651.0,63.0,7.83,0.64,6.26,7.22,0.34,6.63,-1.96,-0.21,-0.77,993.03,0.0,1561984088840.0
1561984058190,2628819.0,64.0,7.74,0.78,6.15,7.16,0.31,6.69,-1.96,-0.21,-0.77,993.03,0.0,1561984088890.0
1561984058240,2629697.0,63.0,6.64,0.2,5.76,7.21,0.34,6.64,-1.96,-0.21,-0.77,993.04,0.0,1561984088940.0
1561984058290,2629897.0,63.0,6.9,0.08,5.96,7.17,0.32,6.68,-1.96,-0.21,-0.77,993.04,0.0,1561984088990.0
1561984058342,2630983.0,63.0,7.57,0.67,6.23,7.1,0.29,6.76,-1.96,-0.21,-0.77,993.04,0.0,1561984089042.0
1561984058390,2632076.0,63.0,7.39,0.13,6.05,7.09,0.27,6.77,-1.96,-0.21,-0.77,993.05,0.0,1561984089090.0
1561984058440,2633443.0,63.0,7.19,0.12,6.57,7.14,0.28,6.71,-1.96,-0.21,-0.77,993.05,0.0,1561984089140.0
1561984058490,2634169.0,63.0,8.09,0.13,6.18,7.13,0.27,6.73,-1.89,-0.21,-0.77,993.06,0.0,1561984089190.0
1561984058540,2634653.0,63.0,7.88,0.39,5.93,7.07,0.25,6.79,-1.96,-0.21,-0.77,993.06,0.0,1561984089240.0
1561984058591,2634759.0,63.0,8.15,0.22,6.43,7.15,0.27,6.7,-1.96,-0.21,-0.77,993.07,0.0,1561984089291.0
1561984058640,2633923.0,63.0,7.89,0.13,6.7,7.16,0.27,6.7,-1.96,-0.21,-0.77,993.07,0.0,1561984089340.0
1561984058691,2631651.0,63.0,8.6,0.51,6.49,7.19,0.3,6.66,-1.96,-0.21,-0.77,993.07,0.0,1561984089391.0
1561984058741,2628697.0,63.0,7.88,0.27,6.17,7.18,0.28,6.68,-1.96,-0.21,-0.77,993.08,0.0,1561984089441.0
1561984058791,2626831.0,63.0,7.7,0.61,6.44,7.21,0.29,6.64,-1.96,-0.21,-0.77,993.08,0.0,1561984089491.0
1561984058840,2625079.0,63.0,8.24,0.13,6.14,7.22,0.29,6.63,-1.96,-0.21,-0.77,993.08,0.0,1561984089540.0
1561984058891,2623444.0,63.0,7.8,0.36,5.91,7.16,0.26,6.7,-1.96,-0.21,-0.77,993.09,0.0,1561984089591.0
1561984058941,2622519.0,63.0,7.1,0.32,5.64,7.09,0.23,6.78,-1.96,-0.21,-0.77,993.09,0.0,1561984089641.0
1561984058992,2621180.0,63.0,7.38,0.02,5.93,7.06,0.22,6.81,-1.96,-0.21,-0.77,993.1,0.0,1561984089692.0
1561984059041,2621203.0,63.0,7.0,0.07,5.93,7.0,0.21,6.86,-2.03,-0.21,-0.77,993.1,0.0,1561984089741.0
1561984059091,2620878.0,63.0,7.44,0.15,5.91,6.78,0.16,7.08,-1.96,-0.21,-0.77,993.1,0.0,1561984089791.0
1561984059142,2620685.0,63.0,7.28,0.17,6.28,6.39,0.1,7.44,-2.03,-0.21,-0.84,993.11,0.0,1561984089842.0
1561984059192,2621099.0,63.0,8.1,-0.28,6.59,6.5,0.12,7.34,-1.96,-0.21,-0.84,993.11,0.0,1561984089892.0
1561984059241,2620159.0,63.0,8.21,-0.28,6.45,6.39,0.11,7.44,-1.96,-0.21,-0.77,993.11,0.0,1561984089941.0
1561984059292,2619087.0,63.0,7.18,0.24,5.98,6.66,0.14,7.2,-1.96,-0.21,-0.77,993.12,0.0,1561984089992.0
1561984059345,2618771.0,63.0,8.11,0.05,6.58,6.75,0.16,7.12,-1.96,-0.21,-0.77,993.12,0.0,1561984090045.0
1561984059392,2618052.0,63.0,8.33,0.45,6.68,6.93,0.2,6.94,-1.89,-0.21,-0.77,993.12,0.0,1561984090092.0
1561984059442,2618270.0,63.0,7.46,0.31,6.22,7.12,0.25,6.73,-1.89,-0.21,-0.77,993.12,0.0,1561984090142.0
1561984059492,2618015.0,63.0,7.56,0.53,6.08,7.15,0.27,6.71,-2.03,-0.21,-0.77,993.12,0.0,1561984090192.0
1561984059541,2618948.0,63.0,7.88,0.7,5.92,7.16,0.3,6.7,-1.89,-0.21,-0.77,993.12,0.0,1561984090241.0
1561984059592,2617817.0,63.0,6.97,0.41,5.79,7.22,0.33,6.63,-1.96,-0.21,-0.77,993.12,0.0,1561984090292.0
1561984059642,2615695.0,63.0,6.79,0.62,5.59,7.18,0.3,6.67,-1.96,-0.21,-0.84,993.13,0.0,1561984090342.0
1561984059692,2613437.0,63.0,7.32,0.59,5.79,7.2,0.31,6.65,-1.96,-0.21,-0.77,993.13,0.0,1561984090392.0
1561984059742,2611492.0,63.0,7.6,0.06,5.92,7.26,0.35,6.59,-1.96,-0.21,-0.77,993.13,0.0,1561984090442.0
1561984059792,2609344.0,63.0,7.83,0.44,6.31,7.28,0.37,6.56,-1.96,-0.21,-0.77,993.13,0.0,1561984090492.0
1561984059841,2606964.0,63.0,7.21,0.62,5.72,7.23,0.37,6.61,-1.96,-0.28,-0.84,993.13,0.0,1561984090541.0
1561984059892,2605406.0,63.0,7.65,0.6,6.24,7.17,0.36,6.68,-1.96,-0.21,-0.77,993.13,0.0,1561984090592.0
1561984059941,2603877.0,63.0,7.17,0.33,6.44,7.13,0.37,6.72,-1.96,-0.21,-0.77,993.14,0.0,1561984090641.0
1561984059992,2601872.0,63.0,6.84,0.31,6.51,7.17,0.39,6.68,-2.03,-0.21,-0.84,993.14,0.0,1561984090692.0
1561984060042,2600112.0,63.0,6.75,0.49,6.3,7.15,0.41,6.7,-1.96,-0.21,-0.77,993.14,0.0,1561984090742.0
1561984060092,2599611.0,63.0,7.69,0.53,6.11,7.13,0.4,6.72,-1.96,-0.21,-0.77,993.14,0.0,1561984090792.0
1561984060142,2599312.0,63.0,6.9,0.54,6.25,7.13,0.39,6.72,-1.96,-0.21,-0.77,993.15,0.0,1561984090842.0
1561984060192,2598648.0,63.0,7.25,0.37,6.34,7.17,0.4,6.67,-1.89,-0.21,-0.84,993.15,0.0,1561984090892.0
1561984060242,2599180.0,63.0,7.42,0.37,6.19,7.21,0.42,6.64,-2.03,-0.21,-0.77,993.15,0.0,1561984090942.0
1561984060292,2600152.0,63.0,7.59,0.45,5.85,7.17,0.41,6.67,-1.96,-0.21,-0.84,993.16,0.0,1561984090992.0
1561984060346,2600625.0,63.0,7.53,0.59,6.07,7.17,0.4,6.68,-1.96,-0.21,-0.77,993.16,0.0,1561984091046.0
1561984060392,2601624.0,63.0,7.04,0.32,6.29,7.16,0.42,6.69,-1.96,-0.21,-0.77,993.16,0.0,1561984091092.0
1561984060442,2602636.0,63.0,7.42,0.37,6.13,7.2,0.44,6.65,-1.96,-0.21,-0.77,993.17,0.0,1561984091142.0
1561984060492,2603215.0,63.0,6.77,0.52,6.08,7.24,0.47,6.6,-1.96,-0.21,-0.77,993.17,0.0,1561984091192.0
1561984060542,2601254.0,63.0,7.87,0.63,6.27,7.23,0.5,6.6,-1.96,-0.21,-0.77,993.18,0.0,1561984091242.0
1561984060593,2598772.0,63.0,8.04,0.82,6.43,7.24,0.49,6.6,-1.96,-0.21,-0.77,993.18,0.0,1561984091293.0
1561984060643,2596015.0,63.0,7.07,0.69,6.2,7.25,0.48,6.59,-1.96,-0.21,-0.84,993.18,0.0,1561984091343.0
1561984060693,2593125.0,63.0,6.85,0.38,5.59,7.23,0.44,6.61,-1.96,-0.28,-0.77,993.19,0.0,1561984091393.0
1561984060742,2591648.0,63.0,6.93,0.39,5.57,7.3,0.48,6.53,-1.96,-0.21,-0.84,993.19,0.0,1561984091442.0
1561984060793,2590601.0,63.0,7.29,0.17,5.91,7.3,0.49,6.53,-2.03,-0.21,-0.84,993.19,0.0,1561984091493.0
1561984060842,2589542.0,63.0,8.16,0.86,6.13,7.28,0.49,6.56,-1.96,-0.21,-0.77,993.2,0.0,1561984091542.0
1561984060893,2589219.0,63.0,7.5,0.56,6.16,7.29,0.52,6.54,-1.96,-0.21,-0.84,993.2,0.0,1561984091593.0
1561984060943,2588656.0,63.0,6.8,0.49,5.99,7.3,0.51,6.53,-1.96,-0.21,-0.84,993.2,0.0,1561984091643.0
1561984060993,2588973.0,63.0,6.56,0.77,5.11,7.26,0.5,6.58,-1.96,-0.21,-0.77,993.2,0.0,1561984091693.0
1561984061043,2588930.0,62.0,6.99,0.43,5.58,7.24,0.5,6.59,-1.96,-0.21,-0.77,993.2,0.0,1561984091743.0
1561984061093,2589337.0,62.0,7.31,0.49,6.68,7.26,0.49,6.58,-1.96,-0.21,-0.84,993.21,0.0,1561984091793.0
1561984061143,2589664.0,63.0,7.46,0.47,6.36,7.32,0.49,6.51,-1.96,-0.21,-0.84,993.21,0.0,1561984091843.0
1561984061193,2589814.0,63.0,6.97,0.45,5.61,7.37,0.49,6.45,-1.89,-0.21,-0.84,993.22,0.0,1561984091893.0
1561984061243,2590430.0,63.0,7.87,0.47,5.5,7.34,0.5,6.48,-1.96,-0.21,-0.77,993.22,0.0,1561984091943.0
1561984061293,2591265.0,62.0,8.52,0.48,5.93,7.37,0.51,6.45,-1.96,-0.21,-0.77,993.22,0.0,1561984091993.0
1561984061347,2592457.0,62.0,7.15,0.59,6.25,7.35,0.51,6.48,-1.96,-0.21,-0.77,993.23,0.0,1561984092047.0
1561984061393,2592880.0,63.0,7.92,0.6,6.05,7.35,0.57,6.46,-1.96,-0.21,-0.77,993.23,0.0,1561984092093.0
1561984061443,2592279.0,63.0,6.94,0.5,5.95,7.39,0.57,6.42,-1.96,-0.21,-0.84,993.23,0.0,1561984092143.0
1561984061494,2590586.0,62.0,7.56,1.12,6.4,7.4,0.57,6.41,-1.89,-0.21,-0.84,993.24,0.0,1561984092194.0
1561984061544,2587775.0,62.0,8.21,0.58,6.06,7.42,0.51,6.39,-1.96,-0.21,-0.77,993.24,0.0,1561984092244.0
1561984061594,2586266.0,62.0,7.48,0.61,5.97,7.39,0.41,6.43,-1.96,-0.21,-0.77,993.24,0.0,1561984092294.0
1561984061643,2584839.0,62.0,8.56,0.08,5.64,7.28,0.32,6.56,-1.96,-0.21,-0.77,993.25,0.0,1561984092343.0
1561984061694,2584232.0,63.0,8.42,-0.34,5.04,7.22,0.29,6.63,-1.96,-0.21,-0.77,993.25,0.0,1561984092394.0
1561984061743,2584951.0,62.0,7.52,-0.36,5.96,7.2,0.32,6.65,-1.96,-0.21,-0.77,993.26,0.0,1561984092443.0
1561984061794,2583644.0,62.0,8.95,-0.1,6.35,7.16,0.3,6.69,-1.96,-0.21,-0.84,993.26,0.0,1561984092494.0
1561984061843,2583223.0,62.0,7.52,0.62,7.01,7.14,0.28,6.72,-1.89,-0.21,-0.84,993.26,0.0,1561984092543.0
1561984061894,2582089.0,62.0,7.83,0.15,6.39,7.09,0.25,6.77,-2.03,-0.21,-0.77,993.27,0.0,1561984092594.0
1561984061944,2580173.0,62.0,9.54,0.01,5.65,9.74,0.11,1.17,-1.89,-0.28,-0.77,993.27,0.0,1561984092644.0
1561984061994,2579976.0,62.0,7.14,0.04,5.29,9.13,-0.03,3.59,-1.89,-0.21,-0.77,993.27,0.0,1561984092694.0
1561984062043,2580019.0,62.0,8.37,-1.29,5.26,9.5,0.03,2.45,-1.96,-0.28,-0.77,993.28,0.0,1561984092743.0
1561984062094,2580435.0,62.0,7.85,-1.12,5.35,5.74,0.07,7.95,-1.96,-0.28,-0.84,993.28,0.0,1561984092794.0
1561984062145,2581362.0,62.0,7.39,0.43,5.95,6.41,0.13,7.42,-1.96,-0.28,-0.77,993.29,0.0,1561984092845.0
1561984062194,2580898.0,62.0,6.85,0.93,6.03,5.84,0.07,7.88,-1.96,-0.21,-0.77,993.29,0.0,1561984092894.0
1561984062245,2580618.0,62.0,7.56,0.56,5.84,9.27,-0.0,3.2,-1.96,-0.21,-0.84,993.29,0.0,1561984092945.0
1561984062295,2578734.0,62.0,7.78,-0.28,5.41,8.92,-0.07,4.07,-1.96,-0.28,-0.84,993.29,0.0,1561984092995.0
1561984062349,2574752.0,62.0,7.85,-1.05,5.26,8.91,-0.07,4.09,-1.96,-0.21,-0.77,993.3,0.0,1561984093049.0
1561984062395,2572722.0,62.0,8.14,-0.56,5.22,8.87,-0.08,4.18,-1.96,-0.21,-0.84,993.3,0.0,1561984093095.0
1561984062445,2571582.0,62.0,8.55,-0.1,5.63,8.73,-0.11,4.47,-1.96,-0.21,-0.77,993.31,0.0,1561984093145.0
1561984062495,2569706.0,62.0,8.14,-0.16,5.48,8.55,-0.17,4.8,-1.96,-0.21,-0.84,993.31,0.0,1561984093195.0
1561984062545,2565395.0,62.0,7.64,-0.33,5.91,8.42,-0.21,5.03,-1.96,-0.21,-0.77,993.32,0.0,1561984093245.0
1561984062596,2560738.0,63.0,8.17,-0.64,5.95,8.35,-0.22,5.14,-1.96,-0.21,-0.84,993.32,0.0,1561984093296.0
1561984062645,2558572.0,62.0,7.31,-0.47,6.27,8.32,-0.22,5.19,-1.96,-0.21,-0.77,993.33,0.0,1561984093345.0
1561984062696,2559209.0,62.0,7.73,-0.26,7.03,8.21,-0.3,5.36,-1.96,-0.21,-0.77,993.34,0.0,1561984093396.0
1561984062746,2560284.0,62.0,7.96,-0.3,6.12,8.1,-0.4,5.52,-1.89,-0.21,-0.77,993.34,0.0,1561984093446.0
1561984062796,2561812.0,62.0,7.99,-0.93,6.04,7.98,-0.57,5.67,-1.89,-0.21,-0.77,993.35,0.0,1561984093496.0
1561984062844,2563464.0,62.0,7.72,-1.2,6.14,8.0,-0.75,5.63,-1.96,-0.21,-0.77,993.36,0.0,1561984093544.0
1561984062896,2564601.0,62.0,7.25,-1.83,5.83,8.07,-0.94,5.49,-1.89,-0.21,-0.77,993.36,0.0,1561984093596.0
1561984062945,2566397.0,62.0,8.32,-2.3,5.34,8.09,-1.14,5.42,-1.89,-0.21,-0.77,993.37,0.0,1561984093645.0
1561984062996,2566925.0,63.0,9.06,-2.59,4.97,8.06,-1.29,5.44,-1.89,-0.21,-0.77,993.37,0.0,1561984093696.0
1561984063046,2568545.0,63.0,8.25,-2.79,4.91,8.02,-1.42,5.47,-1.96,-0.21,-0.84,993.38,0.0,1561984093746.0
1561984063096,2571295.0,62.0,8.35,-2.71,5.84,7.99,-1.49,5.48,-1.96,-0.28,-0.84,993.38,0.0,1561984093796.0
1561984063146,2572472.0,62.0,8.26,-2.53,5.99,8.0,-1.52,5.47,-1.96,-0.21,-0.77,993.38,0.0,1561984093846.0
1561984063196,2570987.0,62.0,7.5,-2.03,5.49,7.99,-1.54,5.47,-1.96,-0.28,-0.77,993.39,0.0,1561984093896.0
1561984063246,2569019.0,62.0,7.77,-1.71,5.3,7.93,-1.58,5.55,-1.96,-0.21,-0.77,993.39,0.0,1561984093946.0
1561984063296,2568022.0,62.0,8.04,-1.77,5.68,7.9,-1.59,5.58,-1.96,-0.21,-0.84,993.39,0.0,1561984093996.0
1561984063348,2567863.0,62.0,7.28,-1.85,6.19,7.91,-1.53,5.6,-1.96,-0.21,-0.84,993.4,0.0,1561984094048.0
1561984063396,2568745.0,62.0,7.45,-1.6,5.82,7.94,-1.44,5.58,-1.96,-0.21,-0.77,993.4,0.0,1561984094096.0
1561984063445,2572569.0,63.0,7.68,-1.04,5.75,7.95,-1.34,5.58,-1.89,-0.21,-0.77,993.4,0.0,1561984094145.0
1561984063496,2576633.0,63.0,7.79,-0.63,5.32,7.99,-1.24,5.54,-1.96,-0.21,-0.77,993.4,0.0,1561984094196.0
1561984063546,2580301.0,63.0,7.57,-0.5,5.55,8.03,-1.15,5.52,-1.96,-0.21,-0.84,993.41,0.0,1561984094246.0
1561984063596,2583568.0,62.0,8.36,-0.49,5.41,8.02,-1.12,5.53,-1.96,-0.21,-0.77,993.41,0.0,1561984094296.0
1561984063646,2586660.0,63.0,8.5,-0.41,5.65,8.02,-1.1,5.53,-1.96,-0.21,-0.77,993.41,0.0,1561984094346.0
1561984063696,2589347.0,63.0,6.71,-0.65,5.23,8.06,-1.06,5.49,-1.89,-0.21,-0.77,993.41,0.0,1561984094396.0
1561984063746,2591743.0,63.0,7.47,-0.89,5.41,8.09,-1.03,5.45,-1.96,-0.21,-0.84,993.41,0.0,1561984094446.0
1561984063796,2594788.0,63.0,8.23,-0.73,5.34,8.1,-1.06,5.42,-1.89,-0.21,-0.84,993.41,0.0,1561984094496.0
1561984063845,2596756.0,63.0,7.88,-0.75,5.08,8.13,-1.02,5.39,-1.89,-0.21,-0.77,993.41,0.0,1561984094545.0
1561984063896,2598380.0,63.0,8.02,-1.27,5.22,8.16,-1.04,5.34,-1.96,-0.21,-0.84,993.41,0.0,1561984094596.0
1561984063946,2600175.0,63.0,8.38,-0.68,5.44,8.16,-0.99,5.35,-1.96,-0.21,-0.84,993.41,0.0,1561984094646.0
1561984063996,2602676.0,63.0,8.4,-1.2,5.17,8.16,-0.98,5.35,-1.96,-0.28,-0.77,993.4,0.0,1561984094696.0
1561984064046,2605398.0,63.0,8.31,-0.61,5.73,8.19,-0.96,5.3,-1.96,-0.28,-0.77,993.4,0.0,1561984094746.0
1561984064097,2608486.0,63.0,8.09,-0.96,5.63,8.19,-0.92,5.31,-1.96,-0.21,-0.84,993.4,0.0,1561984094797.0
1561984064146,2610765.0,63.0,8.98,-0.81,5.45,8.23,-0.85,5.27,-1.96,-0.21,-0.77,993.4,0.0,1561984094846.0
1561984064197,2613005.0,63.0,7.93,-0.56,5.55,8.26,-0.83,5.22,-1.96,-0.21,-0.77,993.4,0.0,1561984094897.0
1561984064247,2613855.0,63.0,8.6,-0.36,5.26,8.28,-0.81,5.2,-2.03,-0.21,-0.77,993.4,0.0,1561984094947.0
1561984064297,2616245.0,63.0,8.43,-0.64,5.05,8.29,-0.79,5.18,-1.96,-0.21,-0.77,993.4,0.0,1561984094997.0
1561984064349,2617913.0,63.0,8.4,-0.68,5.31,8.33,-0.77,5.12,-1.89,-0.21,-0.77,993.4,0.0,1561984095049.0
1561984064397,2619433.0,63.0,8.35,-0.65,5.36,8.31,-0.77,5.16,-1.96,-0.21,-0.77,993.4,0.0,1561984095097.0
1561984064446,2621725.0,63.0,9.17,-0.67,5.19,8.29,-0.79,5.18,-1.96,-0.21,-0.84,993.4,0.0,1561984095146.0
1561984064497,2625584.0,64.0,7.43,-0.63,5.25,8.31,-0.8,5.15,-1.96,-0.21,-0.77,993.4,0.0,1561984095197.0
1561984064547,2628810.0,64.0,7.48,-0.89,5.16,8.31,-0.81,5.15,-1.96,-0.21,-0.84,993.39,0.0,1561984095247.0
1561984064597,2631926.0,63.0,8.79,-0.97,5.3,8.32,-0.79,5.12,-1.96,-0.28,-0.77,993.39,0.0,1561984095297.0
1561984064647,2634431.0,63.0,8.57,-0.87,5.55,8.35,-0.81,5.08,-1.89,-0.21,-0.77,993.4,0.0,1561984095347.0
1561984064697,2635570.0,64.0,8.58,-0.68,5.29,8.32,-0.83,5.12,-1.96,-0.21,-0.77,993.4,0.0,1561984095397.0
1561984064747,2637193.0,64.0,8.71,-0.95,5.08,8.34,-0.84,5.09,-1.96,-0.21,-0.77,993.4,0.0,1561984095447.0
1561984064797,2639495.0,64.0,7.38,-0.91,5.14,8.35,-0.81,5.08,-1.89,-0.21,-0.77,993.4,0.0,1561984095497.0
1561984064847,2641005.0,64.0,8.31,-0.98,4.99,8.35,-0.8,5.08,-1.96,-0.21,-0.77,993.41,0.0,1561984095547.0
1561984064897,2642255.0,64.0,8.81,-0.6,5.56,8.34,-0.82,5.1,-1.96,-0.21,-0.77,993.41,0.0,1561984095597.0
1561984064947,2643760.0,64.0,8.46,-0.73,5.36,8.32,-0.88,5.12,-1.96,-0.21,-0.84,993.41,0.0,1561984095647.0
1561984064997,2645046.0,64.0,8.0,-0.91,5.37,8.34,-0.89,5.09,-1.96,-0.21,-0.77,993.42,0.0,1561984095697.0
1561984065047,2646451.0,64.0,7.6,-1.27,5.03,8.35,-0.92,5.06,-1.89,-0.21,-0.77,993.42,0.0,1561984095747.0
1561984065097,2646260.0,64.0,8.79,-0.99,5.21,8.36,-0.95,5.04,-1.89,-0.21,-0.77,993.42,0.0,1561984095797.0
1561984065148,2644852.0,64.0,8.62,-1.19,5.15,8.35,-0.97,5.04,-2.03,-0.21,-0.77,993.42,0.0,1561984095848.0
1561984065198,2642821.0,64.0,8.51,-1.26,5.1,8.35,-0.98,5.04,-1.89,-0.21,-0.77,993.43,0.0,1561984095898.0
1561984065247,2640727.0,64.0,8.26,-1.11,5.18,8.34,-1.03,5.05,-1.89,-0.21,-0.77,993.43,0.0,1561984095947.0
1561984065298,2638334.0,64.0,8.64,-1.14,5.38,8.36,-1.06,5.02,-2.03,-0.21,-0.84,993.43,0.0,1561984095998.0
1561984065350,2636522.0,64.0,7.94,-1.38,5.07,8.38,-1.05,4.99,-1.89,-0.21,-0.84,993.44,0.0,1561984096050.0
1561984065398,2634892.0,64.0,8.17,-1.27,4.77,8.38,-1.08,4.98,-1.89,-0.21,-0.77,993.44,0.0,1561984096098.0
1561984065449,2633599.0,64.0,8.81,-1.02,5.09,8.39,-1.08,4.97,-1.96,-0.21,-0.77,993.44,0.0,1561984096149.0
1561984065498,2632257.0,64.0,7.95,-1.21,4.77,8.38,-1.08,4.97,-1.96,-0.21,-0.77,993.44,0.0,1561984096198.0
1561984065548,2631385.0,64.0,8.36,-1.09,5.03,8.37,-1.09,5.0,-2.03,-0.21,-0.77,993.45,0.0,1561984096248.0
1561984065598,2630666.0,64.0,8.33,-1.07,5.19,8.38,-1.11,4.97,-1.96,-0.21,-0.77,993.45,0.0,1561984096298.0
1561984065649,2630091.0,64.0,8.08,-1.13,5.25,8.42,-1.05,4.92,-1.96,-0.21,-0.84,993.45,0.0,1561984096349.0
1561984065698,2629698.0,64.0,8.19,-1.3,4.73,8.46,-1.03,4.86,-2.03,-0.21,-0.77,993.45,0.0,1561984096398.0
1561984065749,2629000.0,64.0,8.14,-0.57,4.41,8.47,-1.02,4.84,-1.89,-0.21,-0.77,993.45,0.0,1561984096449.0
1561984065798,2629017.0,64.0,8.71,-0.79,4.49,8.5,-0.97,4.8,-1.96,-0.21,-0.77,993.46,0.0,1561984096498.0
1561984065849,2629061.0,64.0,8.41,-0.97,4.76,8.52,-0.93,4.76,-2.03,-0.21,-0.77,993.46,0.0,1561984096549.0
1561984065899,2628917.0,64.0,8.72,-0.57,4.65,8.54,-0.93,4.74,-1.96,-0.21,-0.77,993.46,0.0,1561984096599.0
1561984065949,2628725.0,64.0,8.41,-0.6,4.53,8.56,-0.91,4.69,-1.96,-0.21,-0.77,993.46,0.0,1561984096649.0
1561984065999,2629120.0,64.0,8.32,-0.88,4.58,8.59,-0.88,4.64,-1.96,-0.21,-0.77,993.46,0.0,1561984096699.0
1561984066050,2628697.0,65.0,8.73,-0.79,4.46,8.6,-0.88,4.62,-1.96,-0.14,-0.77,993.46,0.0,1561984096750.0
1561984066099,2626833.0,65.0,8.49,-0.64,4.3,8.59,-0.92,4.65,-1.96,-0.21,-0.77,993.46,0.0,1561984096799.0
1561984066150,2625143.0,65.0,8.77,-0.9,4.71,8.6,-0.97,4.62,-1.96,-0.21,-0.77,993.46,0.0,1561984096850.0
1561984066199,2622758.0,64.0,8.49,-1.29,5.0,8.61,-0.95,4.6,-1.96,-0.21,-0.84,993.46,0.0,1561984096899.0
1561984066250,2619794.0,64.0,8.94,-1.36,4.68,8.6,-0.98,4.61,-1.96,-0.21,-0.77,993.46,0.0,1561984096950.0
1561984066299,2616925.0,64.0,8.7,-0.85,4.68,8.57,-1.01,4.66,-1.96,-0.21,-0.77,993.46,0.0,1561984096999.0
1561984066353,2615133.0,64.0,8.79,-1.21,4.92,8.56,-1.04,4.68,-1.89,-0.21,-0.77,993.45,0.0,1561984097053.0
1561984066399,2612912.0,64.0,8.65,-1.35,5.41,8.54,-1.04,4.7,-1.96,-0.21,-0.77,993.45,0.0,1561984097099.0
1561984066450,2611388.0,64.0,8.76,-1.37,5.14,8.52,-1.03,4.75,-1.96,-0.21,-0.77,993.45,0.0,1561984097150.0
1561984066500,2608885.0,64.0,8.68,-1.04,5.3,8.49,-1.03,4.8,-1.96,-0.21,-0.84,993.45,0.0,1561984097200.0
1561984066550,2607014.0,64.0,8.56,-0.96,5.53,8.46,-1.04,4.85,-1.96,-0.21,-0.77,993.45,0.0,1561984097250.0
1561984066600,2605527.0,65.0,8.53,-1.07,5.56,8.47,-1.02,4.83,-1.96,-0.21,-0.77,993.45,0.0,1561984097300.0
1561984066651,2604098.0,65.0,8.43,-1.14,5.59,8.45,-0.99,4.87,-1.96,-0.21,-0.77,993.45,0.0,1561984097351.0
1561984066700,2603982.0,64.0,9.33,-0.76,5.38,8.46,-0.97,4.87,-1.96,-0.21,-0.84,993.45,0.0,1561984097400.0
1561984066750,2604394.0,64.0,8.37,-0.75,5.56,8.48,-0.95,4.83,-1.96,-0.21,-0.77,993.45,0.0,1561984097450.0
1561984066800,2605164.0,64.0,9.05,-0.9,5.35,8.49,-0.94,4.81,-1.96,-0.21,-0.77,993.45,0.0,1561984097500.0
1561984066850,2605888.0,64.0,8.89,-0.83,4.88,8.5,-0.96,4.79,-1.96,-0.21,-0.77,993.45,0.0,1561984097550.0
1561984066899,2606732.0,64.0,8.28,-0.89,4.73,8.49,-0.99,4.81,-1.89,-0.21,-0.77,993.45,0.0,1561984097599.0
1561984066949,2607863.0,64.0,8.46,-1.08,4.76,8.47,-1.0,4.85,-1.96,-0.21,-0.77,993.45,0.0,1561984097649.0
1561984067000,2608778.0,64.0,8.62,-1.24,5.23,8.42,-1.0,4.93,-1.96,-0.21,-0.77,993.45,0.0,1561984097700.0
1561984067050,2610342.0,64.0,8.31,-1.11,5.36,8.4,-1.01,4.96,-1.96,-0.21,-0.77,993.45,0.0,1561984097750.0
1561984067100,2610465.0,64.0,7.87,-1.01,5.67,8.39,-1.01,4.98,-1.96,-0.21,-0.84,993.45,0.0,1561984097800.0
1561984067150,2609869.0,64.0,8.39,-1.08,5.57,8.35,-1.01,5.05,-1.96,-0.21,-0.77,993.45,0.0,1561984097850.0
1561984067200,2608365.0,64.0,8.68,-1.07,5.57,8.34,-0.99,5.06,-1.96,-0.21,-0.77,993.45,0.0,1561984097900.0
1561984067251,2607189.0,64.0,7.84,-0.97,5.76,8.32,-0.96,5.1,-1.96,-0.21,-0.77,993.45,0.0,1561984097951.0
1561984067300,2606554.0,64.0,8.46,-0.84,5.51,8.3,-0.92,5.14,-1.96,-0.21,-0.77,993.45,0.0,1561984098000.0
1561984067350,2605753.0,64.0,8.17,-0.71,5.76,8.31,-0.93,5.12,-1.96,-0.21,-0.77,993.44,0.0,1561984098050.0
1561984067400,2605498.0,64.0,8.04,-0.63,5.74,8.32,-0.88,5.11,-1.96,-0.28,-0.77,993.44,0.0,1561984098100.0
1561984067450,2605062.0,64.0,8.27,-0.96,5.1,8.35,-0.83,5.08,-1.96,-0.21,-0.77,993.44,0.0,1561984098150.0
1561984067500,2605137.0,64.0,8.61,-0.5,5.53,8.33,-0.81,5.1,-1.89,-0.21,-0.77,993.44,0.0,1561984098200.0
1561984067551,2605889.0,63.0,9.15,-0.45,5.52,8.32,-0.82,5.13,-2.03,-0.21,-0.77,993.44,0.0,1561984098251.0
1561984067600,2605727.0,63.0,8.51,-0.7,5.81,8.32,-0.82,5.12,-1.96,-0.21,-0.77,993.43,0.0,1561984098300.0
1561984067651,2606424.0,64.0,7.92,-0.85,5.42,8.34,-0.78,5.11,-1.89,-0.21,-0.77,993.43,0.0,1561984098351.0
1561984067700,2606492.0,64.0,8.4,-0.87,5.28,8.33,-0.74,5.11,-1.96,-0.21,-0.77,993.43,0.0,1561984098400.0
1561984067751,2607223.0,64.0,8.15,-0.46,5.19,8.34,-0.7,5.11,-1.96,-0.14,-0.77,993.43,0.0,1561984098451.0
1561984067800,2606870.0,64.0,7.95,-0.43,5.32,8.34,-0.67,5.11,-1.96,-0.21,-0.77,993.44,0.0,1561984098500.0
1561984067851,2607367.0,64.0,8.67,-0.4,5.71,8.36,-0.58,5.09,-1.89,-0.21,-0.84,993.44,0.0,1561984098551.0
1561984067900,2608117.0,64.0,8.57,-0.39,5.68,8.37,-0.53,5.08,-1.96,-0.21,-0.77,993.44,0.0,1561984098600.0
1561984067951,2609476.0,64.0,8.6,0.08,5.67,8.41,-0.53,5.01,-1.96,-0.21,-0.77,993.44,0.0,1561984098651.0
1561984068001,2610259.0,63.0,7.89,-0.11,5.4,8.43,-0.46,4.98,-1.89,-0.21,-0.77,993.44,0.0,1561984098701.0
1561984068051,2611742.0,63.0,8.64,-0.5,4.73,8.43,-0.49,4.98,-1.96,-0.28,-0.84,993.44,0.0,1561984098751.0
1561984068101,2612967.0,63.0,8.0,0.09,5.19,8.42,-0.49,5.01,-1.96,-0.21,-0.77,993.44,0.0,1561984098801.0
1561984068152,2613631.0,63.0,8.13,-0.68,5.03,8.4,-0.5,5.04,-1.96,-0.21,-0.77,993.44,0.0,1561984098852.0
1561984068201,2614052.0,63.0,8.04,-0.52,5.49,8.41,-0.46,5.02,-1.96,-0.21,-0.77,993.44,0.0,1561984098901.0
1561984068251,2612930.0,63.0,8.16,-0.57,5.6,8.44,-0.4,4.98,-1.96,-0.21,-0.77,993.44,0.0,1561984098951.0
1561984068301,2610958.0,63.0,8.65,-0.14,5.69,8.47,-0.35,4.93,-1.96,-0.21,-0.77,993.44,0.0,1561984099001.0
1561984068352,2610007.0,63.0,8.54,0.05,5.37,8.54,-0.31,4.81,-1.96,-0.21,-0.77,993.44,0.0,1561984099052.0
1561984068401,2607606.0,63.0,8.04,0.07,5.12,8.55,-0.31,4.8,-1.96,-0.21,-0.84,993.44,0.0,1561984099101.0
1561984068452,2606709.0,63.0,9.04,0.03,4.48,8.5,-0.41,4.87,-1.96,-0.21,-0.84,993.44,0.0,1561984099152.0
1561984068501,2606148.0,63.0,7.19,-0.29,4.69,8.46,-0.47,4.93,-1.96,-0.21,-0.77,993.43,0.0,1561984099201.0
1561984068552,2605875.0,63.0,7.96,-1.19,4.8,8.35,-0.55,5.11,-1.96,-0.21,-0.77,993.43,0.0,1561984099252.0
1561984068601,2605846.0,63.0,8.22,-0.93,5.46,8.29,-0.59,5.21,-1.89,-0.21,-0.77,993.43,0.0,1561984099301.0
1561984068652,2605907.0,63.0,7.4,-1.14,6.06,8.29,-0.57,5.21,-1.96,-0.21,-0.84,993.42,0.0,1561984099352.0
1561984068701,2604553.0,63.0,7.55,-0.91,5.91,8.31,-0.48,5.18,-1.89,-0.21,-0.77,993.42,0.0,1561984099401.0
1561984068752,2603581.0,63.0,7.91,-0.33,5.49,8.36,-0.41,5.12,-1.96,-0.21,-0.77,993.42,0.0,1561984099452.0
1561984068801,2602380.0,63.0,6.31,0.71,6.07,8.4,-0.38,5.04,-1.96,-0.21,-0.77,993.41,0.0,1561984099501.0
1561984068851,2601583.0,63.0,8.83,0.16,5.52,8.45,-0.32,4.97,-1.96,-0.21,-0.77,993.41,0.0,1561984099551.0
1561984068902,2602225.0,63.0,7.87,-0.1,4.52,8.4,-0.37,5.04,-1.96,-0.21,-0.84,993.41,0.0,1561984099602.0
1561984068952,2603854.0,63.0,7.81,0.16,5.04,8.37,-0.38,5.1,-1.96,-0.21,-0.84,993.4,0.0,1561984099652.0
1561984069002,2606497.0,63.0,7.62,-0.75,5.14,8.39,-0.33,5.07,-1.96,-0.21,-0.77,993.4,0.0,1561984099702.0
1561984069053,2610571.0,63.0,7.26,-0.4,5.49,8.47,-0.24,4.93,-1.96,-0.21,-0.84,993.4,0.0,1561984099753.0
1561984069102,2613218.0,62.0,8.18,0.11,5.98,8.53,-0.2,4.83,-1.96,-0.21,-0.84,993.39,0.0,1561984099802.0
1561984069152,2612794.0,62.0,8.23,0.47,5.74,8.7,-0.12,4.53,-1.96,-0.21,-0.77,993.39,0.0,1561984099852.0
1561984069202,2613494.0,63.0,6.28,0.33,5.35,8.9,-0.07,4.11,-1.96,-0.21,-0.84,993.38,0.0,1561984099902.0
1561984069252,2611071.0,63.0,8.53,0.45,5.48,8.95,-0.06,4.0,-1.96,-0.21,-0.77,993.38,0.0,1561984099952.0
1561984069302,2608451.0,62.0,8.22,0.36,5.23,9.05,-0.05,3.78,-1.96,-0.21,-0.77,993.38,0.0,1561984100002.0
1561984069354,2607871.0,62.0,8.49,-0.04,4.59,9.07,-0.05,3.73,-1.96,-0.21,-0.84,993.37,0.0,1561984100054.0
1561984069403,2606332.0,62.0,7.62,0.12,4.33,8.83,-0.1,4.26,-1.89,-0.21,-0.84,993.37,0.0,1561984100103.0
1561984069453,2606470.0,63.0,7.42,-0.04,4.63,8.62,-0.17,4.68,-1.96,-0.21,-0.77,993.37,0.0,1561984100153.0
1561984069503,2607490.0,63.0,8.02,-0.51,5.39,8.65,-0.15,4.62,-1.96,-0.21,-0.84,993.37,0.0,1561984100203.0
1561984069553,2606925.0,62.0,7.23,-0.61,5.51,9.07,-0.04,3.74,-1.96,-0.21,-0.84,993.36,0.0,1561984100253.0
1561984069603,2606135.0,62.0,8.0,0.02,5.69,9.51,0.02,2.39,-1.96,-0.21,-0.77,993.36,0.0,1561984100303.0
1561984069654,2605775.0,62.0,7.87,0.73,5.43,9.44,0.01,2.67,-1.96,-0.21,-0.77,993.36,0.0,1561984100354.0
1561984069703,2605614.0,62.0,8.11,0.44,5.48,9.31,-0.01,3.08,-1.96,-0.14,-0.77,993.36,0.0,1561984100403.0
1561984069754,2605454.0,62.0,8.68,-0.08,5.31,9.24,-0.02,3.29,-1.96,-0.21,-0.84,993.35,0.0,1561984100454.0
1561984069803,2604714.0,62.0,8.75,-0.15,5.14,9.02,-0.05,3.84,-1.96,-0.21,-0.77,993.35,0.0,1561984100503.0
1561984069853,2606179.0,62.0,7.73,-0.09,4.82,8.86,-0.09,4.2,-1.96,-0.21,-0.77,993.35,0.0,1561984100553.0
1561984069903,2607784.0,62.0,8.17,-0.31,5.33,8.73,-0.13,4.46,-1.96,-0.28,-0.77,993.34,0.0,1561984100603.0
1561984069953,2609646.0,62.0,8.3,-0.36,5.49,8.77,-0.13,4.4,-1.96,-0.21,-0.77,993.34,0.0,1561984100653.0
1561984070003,2611317.0,62.0,8.04,-0.48,5.11,8.67,-0.15,4.59,-1.96,-0.21,-0.77,993.34,0.0,1561984100703.0
1561984070053,2612111.0,62.0,8.64,-0.06,5.17,8.52,-0.24,4.85,-1.96,-0.21,-0.77,993.34,0.0,1561984100753.0
1561984070103,2612541.0,62.0,7.1,-0.33,5.29,8.41,-0.28,5.03,-1.96,-0.21,-0.77,993.34,0.0,1561984100803.0
1561984070153,2612972.0,62.0,8.38,-0.94,5.59,8.3,-0.36,5.22,-1.96,-0.21,-0.77,993.33,0.0,1561984100853.0
1561984070204,2612894.0,61.0,7.05,-0.53,5.97,8.31,-0.41,5.19,-1.96,-0.21,-0.77,993.33,0.0,1561984100904.0
1561984070254,2611179.0,61.0,7.42,-0.92,5.96,8.34,-0.41,5.15,-1.96,-0.21,-0.84,993.33,0.0,1561984100954.0
1561984070304,2608954.0,62.0,9.04,-0.88,5.51,8.3,-0.41,5.21,-1.96,-0.21,-0.84,993.33,0.0,1561984101004.0
1561984070357,2607324.0,62.0,9.15,-0.45,5.65,8.28,-0.49,5.23,-1.96,-0.21,-0.77,993.33,0.0,1561984101057.0
1561984070403,2604964.0,61.0,7.43,-0.4,5.83,8.24,-0.54,5.29,-1.96,-0.21,-0.77,993.33,0.0,1561984101103.0
1561984070453,2603844.0,61.0,7.44,-1.04,4.91,8.22,-0.57,5.32,-1.96,-0.21,-0.77,993.33,0.0,1561984101153.0
1561984070503,2603455.0,62.0,7.31,-0.81,5.45,8.13,-0.65,5.45,-1.89,-0.21,-0.77,993.33,0.0,1561984101203.0
1561984070554,2602399.0,62.0,8.02,-0.85,5.66,8.15,-0.67,5.41,-1.96,-0.21,-0.77,993.33,0.0,1561984101254.0
1561984070604,2601797.0,62.0,7.46,-1.27,6.3,8.16,-0.66,5.4,-1.96,-0.21,-0.84,993.33,0.0,1561984101304.0
1561984070653,2602583.0,61.0,9.28,-1.15,5.79,8.15,-0.66,5.41,-1.96,-0.21,-0.84,993.33,0.0,1561984101353.0
1561984070704,2601429.0,61.0,7.84,-0.53,5.43,8.15,-0.68,5.41,-1.96,-0.21,-0.77,993.32,0.0,1561984101404.0
1561984070753,2602124.0,61.0,6.81,-0.6,5.25,8.14,-0.68,5.43,-1.96,-0.21,-0.84,993.32,0.0,1561984101453.0
1561984070804,2602012.0,61.0,7.9,-0.83,5.57,8.12,-0.71,5.46,-1.96,-0.21,-0.77,993.32,0.0,1561984101504.0
1561984070853,2602595.0,61.0,7.5,-0.63,5.6,8.09,-0.71,5.5,-1.96,-0.21,-0.77,993.32,0.0,1561984101553.0
1561984070904,2602842.0,61.0,7.73,-0.88,5.69,8.12,-0.67,5.45,-1.96,-0.21,-0.77,993.32,0.0,1561984101604.0
1561984070953,2603118.0,61.0,7.7,-0.7,6.07,8.13,-0.6,5.45,-1.96,-0.21,-0.77,993.32,0.0,1561984101653.0
1561984071004,2605289.0,61.0,9.18,-0.05,5.68,8.08,-0.58,5.52,-1.96,-0.21,-0.77,993.32,0.0,1561984101704.0
1561984071053,2607563.0,61.0,7.6,-0.08,5.71,8.1,-0.61,5.49,-1.96,-0.21,-0.84,993.32,0.0,1561984101753.0
1561984071104,2608524.0,61.0,6.88,-0.36,6.14,8.15,-0.56,5.43,-1.96,-0.21,-0.77,993.32,0.0,1561984101804.0
1561984071154,2609647.0,61.0,8.01,-0.76,5.43,8.15,-0.5,5.43,-1.96,-0.21,-0.77,993.32,0.0,1561984101854.0
1561984071204,2608888.0,60.0,8.65,-0.21,5.42,8.11,-0.53,5.49,-1.89,-0.21,-0.77,993.32,0.0,1561984101904.0
1561984071254,2607268.0,61.0,7.43,-0.03,5.79,8.13,-0.5,5.46,-1.96,-0.21,-0.77,993.32,0.0,1561984101954.0
1561984071304,2604688.0,61.0,7.43,-0.7,6.02,8.19,-0.38,5.38,-1.96,-0.21,-0.77,993.32,0.0,1561984102004.0
1561984071357,2604172.0,61.0,7.61,-0.26,5.26,8.16,-0.39,5.42,-1.96,-0.21,-0.84,993.32,0.0,1561984102057.0
1561984071404,2602318.0,61.0,8.03,0.56,5.61,8.2,-0.37,5.36,-1.96,-0.21,-0.84,993.32,0.0,1561984102104.0
1561984071454,2600517.0,61.0,6.22,-0.34,5.87,8.3,-0.26,5.22,-1.96,-0.21,-0.84,993.32,0.0,1561984102154.0
1561984071505,2600084.0,61.0,7.62,-0.25,4.96,8.36,-0.23,5.12,-1.96,-0.21,-0.77,993.32,0.0,1561984102205.0
1561984071554,2598508.0,61.0,7.74,0.69,6.79,8.41,-0.19,5.03,-1.96,-0.28,-0.77,993.31,0.0,1561984102254.0
1561984071605,2597033.0,61.0,8.9,0.03,5.93,8.53,-0.14,4.84,-1.96,-0.28,-0.84,993.31,0.0,1561984102305.0
1561984071654,2597549.0,60.0,7.8,0.12,6.14,8.49,-0.15,4.91,-1.96,-0.21,-0.77,993.31,0.0,1561984102354.0
1561984071705,2597797.0,60.0,7.92,0.26,5.97,8.5,-0.16,4.88,-1.96,-0.21,-0.77,993.31,0.0,1561984102405.0
1561984071755,2596591.0,61.0,7.42,-0.2,5.83,8.62,-0.12,4.68,-1.96,-0.21,-0.77,993.31,0.0,1561984102455.0
1561984071805,2599430.0,61.0,8.73,-0.26,5.23,8.5,-0.16,4.88,-1.96,-0.21,-0.77,993.3,0.0,1561984102505.0
1561984071854,2598537.0,61.0,8.8,0.4,6.23,8.62,-0.13,4.67,-1.96,-0.21,-0.77,993.3,0.0,1561984102554.0
1561984071905,2599284.0,61.0,6.51,-0.6,5.37,8.74,-0.09,4.44,-1.96,-0.21,-0.84,993.3,0.0,1561984102605.0
1561984071956,2599872.0,61.0,10.98,0.4,4.66,8.82,-0.08,4.28,-1.96,-0.21,-0.77,993.3,0.0,1561984102656.0
1561984072005,2600087.0,61.0,4.96,0.29,5.98,9.12,-0.02,3.6,-1.96,-0.21,-0.77,993.3,0.0,1561984102705.0
1561984072056,2599534.0,61.0,8.88,0.14,6.46,9.74,0.07,1.14,-1.96,-0.21,-0.77,993.3,0.0,1561984102756.0
1561984072107,2600650.0,61.0,8.1,0.38,5.94,6.02,0.07,7.74,-1.96,-0.21,-0.77,993.3,0.0,1561984102807.0
1561984072156,2599067.0,60.0,7.89,0.82,5.81,9.73,0.09,1.19,-1.96,-0.21,-0.84,993.3,0.0,1561984102856.0
1561984072205,2595549.0,60.0,8.33,0.43,6.24,6.26,0.08,7.55,-1.96,-0.21,-0.77,993.29,0.0,1561984102905.0
1561984072256,2598095.0,60.0,7.73,-0.0,6.58,6.76,0.12,7.11,-1.96,-0.21,-0.77,993.29,0.0,1561984102956.0
1561984072305,2597482.0,61.0,8.31,0.25,5.2,7.01,0.15,6.86,-1.96,-0.21,-0.77,993.29,0.0,1561984103005.0
1561984072359,2595783.0,61.0,7.24,0.64,4.76,6.84,0.12,7.03,-1.96,-0.21,-0.77,993.29,0.0,1561984103059.0
1561984072405,2597337.0,60.0,7.37,0.37,5.19,6.78,0.13,7.09,-1.96,-0.21,-0.77,993.29,0.0,1561984103105.0
1561984072456,2597751.0,60.0,8.04,-0.06,5.4,7.04,0.16,6.83,-1.96,-0.21,-0.77,993.29,0.0,1561984103156.0
1561984072506,2597891.0,60.0,6.79,0.17,5.39,7.15,0.19,6.71,-1.96,-0.21,-0.77,993.29,0.0,1561984103206.0
1561984072556,2598121.0,60.0,7.51,0.4,5.35,7.15,0.19,6.71,-1.96,-0.21,-0.77,993.29,0.0,1561984103256.0
1561984072606,2599457.0,60.0,7.93,0.42,6.05,6.9,0.14,6.97,-1.96,-0.21,-0.84,993.29,0.0,1561984103306.0
1561984072657,2601480.0,60.0,8.49,0.23,6.45,6.65,0.1,7.21,-2.03,-0.21,-0.77,993.29,0.0,1561984103357.0
1561984072715,2601783.0,60.0,7.29,-0.2,5.92,6.93,0.13,6.94,-1.96,-0.21,-0.84,993.29,0.0,1561984103415.0
1561984072756,2602311.0,61.0,8.39,-0.11,5.29,6.52,0.09,7.32,-1.96,-0.21,-0.77,993.29,0.0,1561984103456.0
1561984072806,2604211.0,61.0,8.94,0.29,5.34,9.75,0.07,1.03,-1.96,-0.21,-0.77,993.3,0.0,1561984103506.0
1561984072857,2606908.0,60.0,6.34,-0.28,5.61,9.75,0.06,1.0,-1.96,-0.21,-0.84,993.3,0.0,1561984103557.0
1561984072907,2608528.0,60.0,7.75,-0.37,5.66,9.75,0.06,1.01,-1.89,-0.21,-0.77,993.3,0.0,1561984103607.0
1561984072958,2608913.0,60.0,8.34,0.03,5.31,9.72,0.05,1.32,-1.96,-0.21,-0.84,993.3,0.0,1561984103658.0
1561984073007,2608780.0,60.0,7.79,0.04,5.37,9.66,0.04,1.68,-1.96,-0.28,-0.77,993.3,0.0,1561984103707.0
1561984073057,2607085.0,60.0,7.52,-0.06,5.8,9.76,0.07,0.95,-1.96,-0.21,-0.84,993.3,0.0,1561984103757.0
1561984073107,2604660.0,60.0,8.41,-0.07,5.53,9.75,0.08,1.01,-1.96,-0.21,-0.77,993.3,0.0,1561984103807.0
1561984073157,2603391.0,60.0,7.41,0.34,5.62,9.75,0.08,1.07,-1.96,-0.21,-0.77,993.3,0.0,1561984103857.0
1561984073207,2602053.0,61.0,7.1,0.16,5.61,9.75,0.07,1.08,-1.96,-0.21,-0.77,993.3,0.0,1561984103907.0
1561984073258,2601263.0,61.0,7.42,0.04,6.19,9.75,0.08,1.07,-1.96,-0.21,-0.77,993.3,0.0,1561984103958.0
1561984073307,2601246.0,61.0,8.04,-0.04,5.65,5.97,0.05,7.78,-1.96,-0.21,-0.77,993.3,0.0,1561984104007.0
1561984073357,2600304.0,60.0,8.11,0.19,6.1,6.07,0.06,7.7,-1.96,-0.21,-0.77,993.3,0.0,1561984104057.0
1561984073407,2601231.0,60.0,8.32,0.15,5.5,9.75,0.07,1.02,-1.96,-0.21,-0.77,993.31,0.0,1561984104107.0
1561984073458,2602312.0,61.0,7.65,0.11,5.36,9.63,0.04,1.85,-1.96,-0.21,-0.77,993.31,0.0,1561984104158.0
1561984073507,2603771.0,61.0,6.94,-0.2,5.41,9.71,0.05,1.36,-1.89,-0.21,-0.77,993.31,0.0,1561984104207.0
1561984073558,2604539.0,60.0,8.1,-0.27,5.22,9.72,0.06,1.32,-1.96,-0.21,-0.77,993.31,0.0,1561984104258.0
1561984073607,2606487.0,60.0,7.46,0.19,5.94,9.55,0.03,2.22,-1.96,-0.21,-0.77,993.31,0.0,1561984104307.0
1561984073658,2607516.0,61.0,8.13,0.07,6.15,9.44,0.02,2.65,-1.96,-0.21,-0.77,993.31,0.0,1561984104358.0
1561984073707,2608300.0,61.0,7.88,-0.21,5.67,9.52,0.03,2.34,-1.96,-0.21,-0.77,993.32,0.0,1561984104407.0
1561984073758,2609159.0,61.0,7.54,-0.08,5.51,9.71,0.05,1.38,-1.96,-0.21,-0.77,993.32,0.0,1561984104458.0
1561984073807,2609804.0,61.0,7.17,0.09,5.72,9.65,0.04,1.76,-1.96,-0.21,-0.77,993.32,0.0,1561984104507.0
1561984073857,2610377.0,61.0,7.73,0.28,5.86,9.64,0.04,1.78,-1.96,-0.21,-0.77,993.32,0.0,1561984104557.0
1561984073907,2609990.0,61.0,7.76,-0.07,5.9,9.73,0.06,1.2,-1.96,-0.21,-0.77,993.32,0.0,1561984104607.0
1561984073957,2607874.0,61.0,8.49,0.02,5.92,9.64,0.04,1.78,-1.96,-0.21,-0.77,993.32,0.0,1561984104657.0
1561984074007,2606013.0,61.0,7.77,0.22,5.48,9.3,0.0,3.1,-1.96,-0.21,-0.77,993.32,0.0,1561984104707.0
1561984074058,2605166.0,61.0,7.63,-0.13,5.81,9.47,0.02,2.55,-2.03,-0.21,-0.77,993.32,0.0,1561984104758.0
1561984074107,2603546.0,61.0,7.39,-0.29,6.09,9.57,0.03,2.12,-1.96,-0.21,-0.77,993.32,0.0,1561984104807.0
1561984074159,2601809.0,61.0,7.6,0.13,5.64,9.69,0.05,1.48,-2.03,-0.21,-0.84,993.31,0.0,1561984104859.0
1561984074207,2600583.0,61.0,7.93,0.11,5.63,5.85,0.05,7.87,-1.96,-0.21,-0.84,993.31,0.0,1561984104907.0
1561984074258,2599874.0,61.0,8.52,0.18,5.72,9.64,0.04,1.79,-1.96,-0.21,-0.77,993.31,0.0,1561984104958.0
1561984074307,2599588.0,61.0,7.44,0.42,6.11,9.27,-0.0,3.2,-1.96,-0.21,-0.77,993.31,0.0,1561984105007.0
1561984074358,2599663.0,61.0,7.68,-0.35,6.11,9.45,0.02,2.61,-1.96,-0.21,-0.77,993.31,0.0,1561984105058.0
1561984074407,2599738.0,61.0,7.87,-0.33,6.01,9.45,0.02,2.61,-1.89,-0.21,-0.77,993.31,0.0,1561984105107.0
1561984074458,2600196.0,61.0,8.21,0.15,6.0,9.15,-0.02,3.53,-1.89,-0.21,-0.77,993.31,0.0,1561984105158.0
1561984074508,2600495.0,61.0,8.19,0.01,5.95,8.87,-0.05,4.17,-2.03,-0.21,-0.77,993.31,0.0,1561984105208.0
1561984074558,2601619.0,61.0,8.69,-0.27,5.82,8.71,-0.08,4.5,-1.89,-0.21,-0.77,993.3,0.0,1561984105258.0
1561984074608,2602640.0,62.0,7.25,-0.28,5.6,8.68,-0.09,4.56,-1.96,-0.21,-0.77,993.3,0.0,1561984105308.0
1561984074658,2603465.0,62.0,6.72,-0.4,5.62,8.54,-0.11,4.83,-1.96,-0.21,-0.84,993.3,0.0,1561984105358.0
1561984074708,2605035.0,61.0,7.97,-0.14,5.82,8.3,-0.15,5.21,-1.96,-0.21,-0.77,993.3,0.0,1561984105408.0
1561984074759,2606007.0,61.0,6.92,-0.25,6.17,8.33,-0.14,5.17,-1.96,-0.21,-0.77,993.29,0.0,1561984105459.0
1561984074808,2607178.0,61.0,6.38,-0.42,6.34,8.42,-0.12,5.02,-1.96,-0.21,-0.77,993.29,0.0,1561984105508.0
1561984074858,2607286.0,62.0,7.91,-0.09,6.1,8.43,-0.12,5.01,-1.96,-0.28,-0.84,993.29,0.0,1561984105558.0
1561984074908,2606865.0,62.0,7.32,0.11,6.1,8.36,-0.13,5.13,-1.96,-0.21,-0.77,993.29,0.0,1561984105608.0
1561984074959,2605686.0,61.0,8.07,-0.13,5.89,8.37,-0.16,5.11,-1.96,-0.21,-0.77,993.29,0.0,1561984105659.0
1561984075008,2604181.0,62.0,7.19,-0.22,6.33,8.26,-0.21,5.28,-2.03,-0.21,-0.84,993.29,0.0,1561984105708.0
1561984075059,2603788.0,62.0,9.44,-0.61,5.41,8.21,-0.26,5.36,-1.96,-0.21,-0.77,993.28,0.0,1561984105759.0
1561984075108,2602620.0,62.0,7.06,-0.51,5.49,8.27,-0.22,5.26,-1.96,-0.21,-0.77,993.28,0.0,1561984105808.0
1561984075159,2603704.0,62.0,7.83,-0.66,5.53,8.29,-0.21,5.24,-1.96,-0.21,-0.77,993.28,0.0,1561984105859.0
1561984075208,2604127.0,62.0,7.85,0.08,5.56,8.22,-0.24,5.34,-1.89,-0.21,-0.84,993.28,0.0,1561984105908.0
1561984075259,2605852.0,62.0,7.47,-0.13,5.57,8.27,-0.22,5.27,-2.03,-0.21,-0.77,993.27,0.0,1561984105959.0
1561984075308,2605539.0,62.0,6.49,-0.56,5.95,8.42,-0.15,5.03,-1.96,-0.21,-0.84,993.27,0.0,1561984106008.0
1561984075359,2607119.0,62.0,7.8,-0.04,5.69,8.35,-0.17,5.14,-1.96,-0.21,-0.77,993.27,0.0,1561984106059.0
1561984075409,2608133.0,62.0,8.38,0.44,6.07,8.35,-0.17,5.14,-1.96,-0.21,-0.77,993.27,0.0,1561984106109.0
1561984075459,2609572.0,62.0,7.09,-0.29,5.75,8.39,-0.16,5.07,-1.96,-0.21,-0.77,993.26,0.0,1561984106159.0
1561984075509,2610606.0,62.0,8.13,-0.21,5.86,8.39,-0.17,5.07,-1.96,-0.21,-0.77,993.26,0.0,1561984106209.0
1561984075559,2612556.0,62.0,7.46,-0.08,5.11,8.31,-0.23,5.21,-1.96,-0.21,-0.77,993.25,0.0,1561984106259.0
1561984075609,2614032.0,62.0,7.42,-0.23,5.14,8.33,-0.23,5.16,-1.96,-0.21,-0.77,993.25,0.0,1561984106309.0
1561984075660,2616568.0,62.0,7.44,-0.6,5.31,8.3,-0.24,5.22,-1.96,-0.21,-0.84,993.25,0.0,1561984106360.0
1561984075709,2618076.0,62.0,9.09,-0.27,6.1,8.39,-0.19,5.08,-1.96,-0.28,-0.77,993.25,0.0,1561984106409.0
1561984075759,2619847.0,62.0,7.15,-0.28,5.62,8.43,-0.17,5.01,-1.96,-0.21,-0.84,993.24,0.0,1561984106459.0
1561984075809,2620999.0,62.0,8.52,0.25,6.14,8.46,-0.16,4.97,-2.03,-0.21,-0.84,993.24,0.0,1561984106509.0
1561984075859,2622740.0,62.0,7.49,-0.03,5.41,8.44,-0.17,4.98,-1.96,-0.21,-0.77,993.23,0.0,1561984106559.0
1561984075909,2623825.0,62.0,7.8,-0.06,5.7,8.47,-0.18,4.95,-1.96,-0.21,-0.84,993.23,0.0,1561984106609.0
1561984075960,2623426.0,62.0,7.76,-0.25,5.35,8.46,-0.21,4.95,-1.96,-0.21,-0.84,993.23,0.0,1561984106660.0
1561984076009,2621876.0,63.0,8.06,-0.29,4.79,8.52,-0.18,4.85,-1.96,-0.21,-0.77,993.22,0.0,1561984106709.0
1561984076060,2622508.0,62.0,8.38,-0.39,5.15,8.56,-0.15,4.78,-1.96,-0.21,-0.77,993.22,0.0,1561984106760.0
1561984076109,2621797.0,62.0,8.2,0.07,5.64,8.61,-0.13,4.69,-1.96,-0.21,-0.84,993.21,0.0,1561984106809.0
1561984076159,2622734.0,62.0,7.38,0.08,5.96,8.71,-0.1,4.5,-1.96,-0.21,-0.84,993.21,0.0,1561984106859.0
1561984076210,2623325.0,62.0,7.58,0.06,5.76,8.9,-0.06,4.11,-1.89,-0.21,-0.84,993.21,0.0,1561984106910.0
1561984076259,2623462.0,62.0,7.52,0.13,5.46,9.06,-0.03,3.77,-1.96,-0.21,-0.77,993.2,0.0,1561984106959.0
1561984076310,2623831.0,62.0,8.54,0.23,5.41,8.9,-0.06,4.12,-1.96,-0.21,-0.77,993.2,0.0,1561984107010.0
1561984076362,2624644.0,62.0,8.28,0.13,5.48,8.81,-0.08,4.3,-1.96,-0.21,-0.77,993.19,0.0,1561984107062.0
1561984076410,2626041.0,63.0,7.48,-0.22,5.4,8.83,-0.08,4.27,-1.96,-0.21,-0.77,993.19,0.0,1561984107110.0
1561984076460,2627680.0,63.0,8.29,-0.24,5.24,8.69,-0.11,4.55,-1.96,-0.21,-0.84,993.18,0.0,1561984107160.0
1561984076510,2629442.0,63.0,8.56,-0.08,5.38,8.65,-0.12,4.62,-1.89,-0.21,-0.84,993.18,0.0,1561984107210.0
1561984076560,2631056.0,63.0,6.75,-0.51,5.53,8.71,-0.1,4.5,-1.96,-0.21,-0.77,993.18,0.0,1561984107260.0
1561984076611,2632452.0,62.0,7.62,-0.16,5.68,8.69,-0.11,4.54,-1.96,-0.21,-0.77,993.17,0.0,1561984107311.0
1561984076661,2633161.0,63.0,8.48,0.01,5.58,8.81,-0.08,4.31,-1.96,-0.21,-0.77,993.17,0.0,1561984107361.0
1561984076711,2633051.0,63.0,7.95,-0.13,5.9,9.22,-0.01,3.35,-1.96,-0.21,-0.77,993.16,0.0,1561984107411.0
1561984076761,2633309.0,63.0,8.36,0.16,6.03,9.24,-0.01,3.29,-1.96,-0.21,-0.77,993.16,0.0,1561984107461.0
1561984076811,2633407.0,62.0,8.58,0.48,5.82,9.48,0.02,2.49,-1.96,-0.21,-0.84,993.15,0.0,1561984107511.0
1561984076861,2634107.0,62.0,7.03,0.01,5.13,9.28,-0.0,3.16,-1.89,-0.21,-0.84,993.15,0.0,1561984107561.0
1561984076911,2634053.0,63.0,7.65,0.22,5.67,9.36,0.0,2.93,-2.03,-0.21,-0.77,993.14,0.0,1561984107611.0
1561984076961,2633441.0,63.0,7.55,-0.16,5.64,9.25,-0.01,3.25,-1.89,-0.28,-0.77,993.14,0.0,1561984107661.0
1561984077011,2632391.0,63.0,8.17,0.05,5.41,9.06,-0.03,3.75,-1.89,-0.21,-0.77,993.13,0.0,1561984107711.0
1561984077061,2631523.0,63.0,8.48,-0.11,5.73,9.29,-0.0,3.14,-1.96,-0.28,-0.77,993.13,0.0,1561984107761.0
1561984077111,2629684.0,63.0,8.67,-0.23,6.35,9.63,0.03,1.84,-1.96,-0.28,-0.84,993.12,0.0,1561984107811.0
1561984077162,2629102.0,63.0,8.75,0.2,5.88,9.58,0.03,2.09,-1.96,-0.28,-0.77,993.12,0.0,1561984107862.0
1561984077211,2628070.0,63.0,8.03,0.31,5.1,9.68,0.04,1.59,-1.96,-0.21,-0.77,993.11,0.0,1561984107911.0
1561984077262,2626670.0,63.0,6.68,-0.04,4.82,9.68,0.04,1.58,-1.96,-0.21,-0.84,993.11,0.0,1561984107962.0
1561984077311,2625976.0,62.0,8.09,0.15,5.96,9.57,0.03,2.13,-1.96,-0.28,-0.84,993.11,0.0,1561984108011.0
1561984077365,2625423.0,62.0,7.98,0.05,6.27,9.7,0.05,1.42,-1.96,-0.21,-0.77,993.1,0.0,1561984108065.0
1561984077411,2624958.0,63.0,7.54,-0.09,5.9,6.1,0.05,7.68,-1.96,-0.21,-0.84,993.1,0.0,1561984108111.0
1561984077462,2624757.0,63.0,8.25,0.19,5.66,6.32,0.07,7.5,-1.96,-0.21,-0.77,993.1,0.0,1561984108162.0
1561984077511,2625314.0,63.0,8.64,0.46,5.69,9.76,0.07,0.97,-1.96,-0.21,-0.84,993.09,0.0,1561984108211.0
1561984077561,2626358.0,63.0,7.99,0.19,6.03,9.75,0.06,1.08,-1.96,-0.21,-0.77,993.09,0.0,1561984108261.0
1561984077611,2626912.0,63.0,7.37,-0.16,5.72,9.76,0.07,0.9,-1.96,-0.21,-0.84,993.09,0.0,1561984108311.0
1561984077662,2627272.0,63.0,7.37,-0.06,4.94,6.16,0.05,7.63,-1.96,-0.21,-0.77,993.09,0.0,1561984108362.0
1561984077711,2628962.0,63.0,7.71,0.2,5.21,9.66,0.04,1.67,-1.96,-0.21,-0.77,993.08,0.0,1561984108411.0
1561984077762,2630718.0,63.0,8.8,0.2,5.58,9.76,0.07,0.94,-1.89,-0.21,-0.77,993.08,0.0,1561984108462.0
1561984077811,2632140.0,63.0,7.68,-0.41,6.19,7.02,0.12,6.84,-1.89,-0.21,-0.77,993.07,0.0,1561984108511.0
1561984077861,2632736.0,63.0,7.82,0.36,5.86,7.36,0.16,6.48,-1.96,-0.21,-0.77,993.06,0.0,1561984108561.0
1561984077911,2633937.0,63.0,7.77,0.65,5.05,7.27,0.15,6.58,-1.89,-0.21,-0.77,993.06,0.0,1561984108611.0
1561984077962,2633775.0,63.0,7.79,0.47,4.98,6.83,0.09,7.04,-1.89,-0.21,-0.77,993.05,0.0,1561984108662.0
1561984078011,2632872.0,63.0,8.14,0.06,6.02,6.79,0.09,7.07,-1.89,-0.21,-0.77,993.04,0.0,1561984108711.0
1561984078062,2630357.0,63.0,7.28,-0.28,6.08,7.1,0.13,6.77,-1.96,-0.21,-0.84,993.04,0.0,1561984108762.0
1561984078112,2628401.0,63.0,7.28,0.13,5.86,7.26,0.16,6.59,-1.96,-0.28,-0.84,993.03,0.0,1561984108812.0
1561984078162,2626731.0,63.0,8.35,0.37,5.63,7.39,0.19,6.45,-1.96,-0.21,-0.77,993.02,0.0,1561984108862.0
1561984078212,2626286.0,63.0,7.83,0.43,5.64,7.54,0.25,6.26,-1.96,-0.28,-0.77,993.01,0.0,1561984108912.0
1561984078262,2625847.0,63.0,7.97,0.48,5.73,7.7,0.37,6.07,-1.96,-0.21,-0.77,993.01,0.0,1561984108962.0
1561984078312,2624728.0,62.0,7.63,0.71,5.31,7.75,0.45,5.99,-1.96,-0.21,-0.84,993.0,0.0,1561984109012.0
1561984078366,2624317.0,62.0,7.63,1.17,5.23,7.72,0.49,6.03,-1.96,-0.21,-0.84,992.99,0.0,1561984109066.0
1561984078412,2625086.0,63.0,8.37,1.19,5.86,7.72,0.51,6.03,-1.96,-0.21,-0.77,992.98,0.0,1561984109112.0
1561984078462,2626689.0,63.0,7.33,0.82,5.87,7.74,0.54,6.0,-1.89,-0.21,-0.77,992.98,0.0,1561984109162.0
1561984078512,2628374.0,63.0,7.52,0.67,5.56,7.7,0.55,6.05,-1.96,-0.21,-0.77,992.97,0.0,1561984109212.0
1561984078562,2629310.0,62.0,7.88,0.76,5.51,7.7,0.51,6.05,-1.96,-0.21,-0.84,992.96,0.0,1561984109262.0
1561984078612,2631078.0,63.0,6.96,0.59,5.7,7.69,0.47,6.07,-1.96,-0.21,-0.77,992.96,0.0,1561984109312.0
1561984078663,2632686.0,63.0,8.76,0.21,5.93,7.69,0.45,6.07,-1.96,-0.21,-0.77,992.95,0.0,1561984109363.0
1561984078712,2634075.0,63.0,7.41,0.18,5.32,7.71,0.45,6.04,-1.89,-0.21,-0.77,992.94,0.0,1561984109412.0
1561984078763,2635906.0,63.0,7.81,0.31,5.5,7.66,0.38,6.12,-1.96,-0.21,-0.84,992.93,0.0,1561984109463.0
1561984078812,2638116.0,62.0,8.61,0.41,5.59,7.58,0.3,6.22,-1.89,-0.21,-0.84,992.92,0.0,1561984109512.0
1561984078862,2641152.0,62.0,7.3,-0.11,5.57,7.54,0.29,6.26,-1.89,-0.21,-0.77,992.91,0.0,1561984109562.0
1561984078912,2642773.0,62.0,7.54,-0.29,5.3,7.53,0.29,6.28,-1.96,-0.21,-0.84,992.9,0.0,1561984109612.0
1561984078963,2643788.0,62.0,7.32,0.2,5.5,7.51,0.28,6.3,-1.96,-0.21,-0.84,992.89,0.0,1561984109663.0
1561984079012,2645089.0,62.0,8.11,0.26,5.95,7.49,0.27,6.32,-1.96,-0.28,-0.77,992.87,0.0,1561984109712.0
1561984079063,2644352.0,62.0,8.48,0.28,6.23,7.55,0.29,6.25,-1.96,-0.28,-0.77,992.86,0.0,1561984109763.0
1561984079113,2642111.0,62.0,7.97,0.19,5.7,7.59,0.31,6.2,-1.96,-0.21,-0.84,992.85,0.0,1561984109813.0
1561984079163,2639072.0,62.0,7.97,0.45,5.45,7.65,0.33,6.12,-1.96,-0.21,-0.77,992.84,0.0,1561984109863.0
1561984079213,2636638.0,62.0,7.92,0.5,5.52,7.67,0.33,6.1,-1.96,-0.21,-0.77,992.82,0.0,1561984109913.0
1561984079264,2634901.0,62.0,8.56,0.48,5.53,7.69,0.36,6.07,-2.03,-0.21,-0.77,992.81,0.0,1561984109964.0
1561984079313,2632963.0,62.0,8.02,0.38,5.41,7.7,0.37,6.06,-1.96,-0.21,-0.77,992.8,0.0,1561984110013.0
1561984079367,2632023.0,62.0,7.77,0.54,5.52,7.67,0.39,6.1,-1.89,-0.21,-0.77,992.79,0.0,1561984110067.0
1561984079413,2631887.0,62.0,8.01,0.5,5.67,7.64,0.38,6.14,-1.96,-0.21,-0.77,992.77,0.0,1561984110113.0
1561984079463,2632133.0,62.0,7.35,0.55,5.93,7.61,0.35,6.17,-1.96,-0.21,-0.84,992.76,0.0,1561984110163.0
1561984079513,2632012.0,62.0,8.23,0.27,6.2,7.67,0.38,6.09,-1.96,-0.21,-0.77,992.75,0.0,1561984110213.0
1561984079564,2631962.0,62.0,8.02,0.15,5.72,7.68,0.35,6.09,-1.96,-0.21,-0.84,992.74,0.0,1561984110264.0
1561984079613,2632619.0,62.0,8.35,0.69,5.62,7.63,0.31,6.16,-1.96,-0.28,-0.77,992.73,0.0,1561984110313.0
1561984079664,2633481.0,62.0,8.12,0.13,5.15,7.6,0.29,6.19,-1.89,-0.21,-0.77,992.72,0.0,1561984110364.0
1561984079713,2634683.0,62.0,7.6,-0.04,5.29,7.59,0.28,6.2,-1.96,-0.21,-0.77,992.71,0.0,1561984110413.0
1561984079765,2636477.0,62.0,8.0,0.21,5.75,7.63,0.32,6.15,-1.96,-0.21,-0.77,992.69,0.0,1561984110465.0
1561984079813,2636957.0,62.0,8.15,0.22,5.68,7.64,0.34,6.13,-1.89,-0.21,-0.77,992.68,0.0,1561984110513.0
1561984079864,2638975.0,62.0,8.14,0.6,5.82,7.66,0.37,6.12,-1.96,-0.21,-0.77,992.67,0.0,1561984110564.0
1561984079913,2639256.0,61.0,7.66,0.55,5.65,7.69,0.41,6.08,-1.96,-0.21,-0.77,992.66,0.0,1561984110613.0
1561984079965,2639833.0,61.0,7.82,0.58,5.73,7.67,0.37,6.1,-1.96,-0.21,-0.84,992.65,0.0,1561984110665.0
1561984080014,2641081.0,62.0,8.23,0.79,5.95,7.62,0.33,6.17,-1.96,-0.21,-0.77,992.65,0.0,1561984110714.0
1561984080065,2641895.0,62.0,8.38,0.11,5.69,7.58,0.3,6.22,-1.89,-0.21,-0.77,992.64,0.0,1561984110765.0
1561984080114,2642242.0,62.0,7.63,-0.03,5.62,7.46,0.23,6.36,-1.89,-0.21,-0.77,992.63,0.0,1561984110814.0
1561984080165,2641993.0,61.0,8.19,0.07,5.69,7.36,0.2,6.48,-2.03,-0.21,-0.77,992.63,0.0,1561984110865.0
1561984080215,2641516.0,62.0,7.53,-0.26,5.43,7.34,0.2,6.5,-1.89,-0.21,-0.77,992.62,0.0,1561984110915.0
1561984080265,2641514.0,62.0,7.29,-0.03,5.51,6.88,0.11,6.99,-1.89,-0.21,-0.77,992.62,0.0,1561984110965.0
1561984080314,2640360.0,62.0,7.89,0.16,5.58,9.5,0.02,2.44,-2.03,-0.21,-0.84,992.61,0.0,1561984111014.0
1561984080368,2639800.0,61.0,7.77,-0.44,5.22,9.08,-0.03,3.7,-1.89,-0.21,-0.84,992.61,0.0,1561984111068.0
1561984080414,2639411.0,61.0,7.8,-0.97,5.42,9.58,0.03,2.07,-1.89,-0.21,-0.77,992.61,0.0,1561984111114.0
1561984080465,2639006.0,61.0,8.1,-0.39,6.06,9.75,0.07,1.05,-1.96,-0.21,-0.77,992.6,0.0,1561984111165.0
1561984080515,2639156.0,61.0,7.93,0.49,6.48,9.75,0.08,1.07,-1.96,-0.21,-0.77,992.6,0.0,1561984111215.0
1561984080564,2639980.0,61.0,8.27,0.5,6.6,6.86,0.13,7.0,-2.03,-0.21,-0.77,992.6,0.0,1561984111264.0
1561984080615,2639059.0,61.0,8.32,0.18,6.02,7.12,0.16,6.74,-1.96,-0.21,-0.77,992.6,0.0,1561984111315.0
1561984080665,2637901.0,61.0,7.71,0.67,5.52,7.1,0.15,6.76,-1.96,-0.21,-0.84,992.6,0.0,1561984111365.0
1561984080715,2637202.0,61.0,7.51,0.43,5.31,9.76,0.07,1.0,-2.03,-0.21,-0.77,992.6,0.0,1561984111415.0
1561984080765,2638130.0,61.0,7.8,0.09,5.15,9.39,0.01,2.82,-1.89,-0.21,-0.77,992.6,0.0,1561984111465.0
1561984080815,2640111.0,61.0,7.56,-0.77,4.99,9.25,-0.01,3.25,-1.96,-0.21,-0.77,992.59,0.0,1561984111515.0
1561984080864,2642161.0,61.0,8.03,-0.5,5.5,8.97,-0.04,3.97,-2.03,-0.21,-0.77,992.59,0.0,1561984111564.0
1561984080915,2644045.0,61.0,7.75,-0.13,5.77,8.69,-0.1,4.55,-1.96,-0.21,-0.77,992.59,0.0,1561984111615.0
1561984080965,2646446.0,61.0,7.63,-0.29,6.2,8.49,-0.15,4.9,-1.96,-0.21,-0.77,992.59,0.0,1561984111665.0
1561984081015,2645866.0,61.0,8.52,-0.52,6.26,8.51,-0.14,4.87,-1.96,-0.21,-0.77,992.58,0.0,1561984111715.0
1561984081065,2643103.0,61.0,7.7,-0.52,6.04,8.49,-0.15,4.9,-1.96,-0.14,-0.77,992.58,0.0,1561984111765.0
1561984081115,2640082.0,61.0,8.2,-0.07,6.25,8.4,-0.21,5.06,-1.96,-0.21,-0.77,992.58,0.0,1561984111815.0
1561984081165,2637701.0,61.0,8.71,-0.29,5.73,8.37,-0.27,5.1,-1.96,-0.21,-0.77,992.58,0.0,1561984111865.0
1561984081215,2635906.0,61.0,8.47,-0.74,5.69,8.27,-0.34,5.26,-1.96,-0.21,-0.84,992.57,0.0,1561984111915.0
1561984081265,2635250.0,61.0,8.81,-0.7,5.55,8.22,-0.42,5.33,-1.96,-0.21,-0.77,992.57,0.0,1561984111965.0
1561984081315,2634356.0,61.0,7.39,-0.88,5.62,8.19,-0.45,5.37,-1.96,-0.21,-0.77,992.57,0.0,1561984112015.0
1561984081368,2634806.0,61.0,7.9,-1.01,5.64,8.18,-0.49,5.39,-1.89,-0.21,-0.77,992.57,0.0,1561984112068.0
1561984081415,2634610.0,61.0,7.66,-0.68,5.7,8.13,-0.53,5.45,-1.96,-0.21,-0.77,992.56,0.0,1561984112115.0
1561984081465,2633995.0,61.0,8.29,-0.81,5.86,8.07,-0.62,5.53,-1.96,-0.21,-0.77,992.56,0.0,1561984112165.0
1561984081515,2632793.0,60.0,7.86,-0.88,6.09,8.1,-0.66,5.49,-1.96,-0.21,-0.84,992.56,0.0,1561984112215.0
1561984081565,2632192.0,60.0,7.35,-1.26,5.79,8.08,-0.7,5.51,-1.96,-0.21,-0.77,992.55,0.0,1561984112265.0
1561984081616,2631993.0,61.0,8.06,-0.94,5.29,8.05,-0.77,5.54,-1.96,-0.21,-0.77,992.55,0.0,1561984112316.0
1561984081666,2632140.0,61.0,7.7,-0.99,5.6,8.06,-0.8,5.54,-1.96,-0.21,-0.77,992.54,0.0,1561984112366.0
1561984081716,2632705.0,60.0,8.02,-1.4,5.99,8.07,-0.78,5.52,-1.96,-0.21,-0.84,992.54,0.0,1561984112416.0
1561984081765,2633957.0,60.0,8.07,-1.0,5.71,8.1,-0.75,5.48,-1.96,-0.21,-0.77,992.53,0.0,1561984112465.0
1561984081816,2634965.0,60.0,8.04,-0.65,5.68,8.11,-0.72,5.47,-1.96,-0.21,-0.77,992.53,0.0,1561984112516.0
1561984081865,2635620.0,61.0,8.28,-0.52,5.46,8.1,-0.77,5.48,-1.96,-0.21,-0.77,992.52,0.0,1561984112565.0
1561984081916,2637106.0,60.0,8.54,-0.53,6.0,8.1,-0.76,5.48,-1.89,-0.21,-0.77,992.52,0.0,1561984112616.0
1561984081966,2636279.0,60.0,8.15,-1.15,5.81,8.14,-0.71,5.43,-1.96,-0.21,-0.77,992.51,0.0,1561984112666.0
1561984082016,2634042.0,60.0,7.48,-0.67,5.35,8.14,-0.74,5.41,-1.96,-0.21,-0.77,992.51,0.0,1561984112716.0
1561984082065,2631227.0,60.0,8.39,-0.28,5.32,8.12,-0.77,5.44,-1.96,-0.21,-0.77,992.5,0.0,1561984112765.0
1561984082116,2629353.0,60.0,8.26,-1.02,5.54,8.12,-0.75,5.44,-1.96,-0.21,-0.84,992.5,0.0,1561984112816.0
1561984082166,2627730.0,60.0,7.86,-0.97,5.76,8.12,-0.72,5.45,-1.96,-0.21,-0.77,992.49,0.0,1561984112866.0
1561984082218,2625418.0,60.0,7.62,-0.51,5.53,8.09,-0.74,5.5,-1.96,-0.21,-0.77,992.49,0.0,1561984112918.0
1561984082266,2624131.0,60.0,7.79,-0.53,5.7,8.07,-0.76,5.53,-1.96,-0.21,-0.77,992.48,0.0,1561984112966.0
1561984082316,2624317.0,60.0,7.29,-0.8,5.72,8.1,-0.76,5.47,-1.96,-0.21,-0.77,992.48,0.0,1561984113016.0
1561984082368,2623344.0,60.0,7.36,-0.87,5.58,8.17,-0.73,5.37,-1.96,-0.21,-0.77,992.47,0.0,1561984113068.0
1561984082416,2623301.0,60.0,8.22,-0.73,5.25,8.17,-0.68,5.37,-1.96,-0.28,-0.77,992.46,0.0,1561984113116.0
1561984082466,2623792.0,60.0,8.86,-0.5,4.81,8.14,-0.72,5.43,-1.96,-0.21,-0.77,992.46,0.0,1561984113166.0
1561984082516,2624948.0,60.0,8.21,-0.28,5.97,8.12,-0.73,5.45,-1.89,-0.21,-0.77,992.46,0.0,1561984113216.0
1561984082566,2625883.0,60.0,8.15,-1.11,6.2,8.16,-0.66,5.41,-2.03,-0.21,-0.77,992.45,0.0,1561984113266.0
1561984082617,2626998.0,60.0,7.31,-0.75,5.38,8.16,-0.63,5.41,-1.96,-0.21,-0.77,992.44,0.0,1561984113317.0
1561984082666,2627345.0,60.0,8.04,-0.12,5.26,8.11,-0.65,5.48,-1.89,-0.21,-0.77,992.44,0.0,1561984113366.0
1561984082717,2627721.0,60.0,7.75,-0.33,5.61,8.09,-0.62,5.5,-1.96,-0.21,-0.77,992.43,0.0,1561984113417.0
1561984082766,2628921.0,60.0,7.38,-0.77,6.1,8.08,-0.57,5.53,-1.96,-0.14,-0.77,992.43,0.0,1561984113466.0
1561984082817,2629010.0,60.0,7.68,-0.38,6.0,8.08,-0.55,5.53,-1.96,-0.21,-0.77,992.42,0.0,1561984113517.0
1561984082866,2629196.0,60.0,7.02,-0.14,5.9,8.11,-0.52,5.48,-1.89,-0.21,-0.84,992.42,0.0,1561984113566.0
1561984082917,2630764.0,60.0,7.43,-0.35,5.52,8.13,-0.5,5.47,-1.96,-0.21,-0.77,992.41,0.0,1561984113617.0
1561984082966,2631556.0,60.0,8.87,-0.27,6.01,8.13,-0.51,5.46,-1.96,-0.21,-0.77,992.41,0.0,1561984113666.0
1561984083017,2630523.0,60.0,8.27,-0.41,5.87,8.17,-0.48,5.41,-1.89,-0.21,-0.77,992.41,0.0,1561984113717.0
1561984083066,2628666.0,60.0,7.87,-0.58,5.59,8.18,-0.45,5.39,-1.96,-0.28,-0.84,992.4,0.0,1561984113766.0
1561984083117,2627858.0,60.0,8.07,-0.16,5.24,8.17,-0.42,5.41,-1.96,-0.21,-0.77,992.4,0.0,1561984113817.0
1561984083167,2627562.0,60.0,7.54,-0.23,5.4,8.18,-0.4,5.4,-1.96,-0.21,-0.77,992.4,0.0,1561984113867.0
1561984083217,2627329.0,60.0,7.66,-0.2,6.18,8.16,-0.39,5.42,-1.96,-0.21,-0.77,992.39,0.0,1561984113917.0
1561984083267,2626314.0,60.0,7.81,-0.16,5.95,8.12,-0.41,5.49,-1.96,-0.21,-0.77,992.39,0.0,1561984113967.0
1561984083317,2625066.0,60.0,7.41,-0.33,5.76,8.14,-0.39,5.45,-1.96,-0.21,-0.77,992.38,0.0,1561984114017.0
1561984083369,2624077.0,60.0,6.95,-0.52,5.67,8.13,-0.38,5.47,-1.96,-0.21,-0.77,992.38,0.0,1561984114069.0
1561984083417,2623988.0,60.0,8.55,-0.19,6.02,8.13,-0.39,5.47,-1.96,-0.21,-0.84,992.38,0.0,1561984114117.0
1561984083468,2624188.0,60.0,7.59,-0.33,5.9,8.18,-0.37,5.4,-1.96,-0.21,-0.84,992.38,0.0,1561984114168.0
1561984083518,2624419.0,60.0,7.85,-0.44,5.84,8.17,-0.37,5.41,-1.96,-0.21,-0.77,992.37,0.0,1561984114218.0
1561984083567,2625628.0,60.0,8.42,-0.17,5.41,8.18,-0.4,5.4,-1.96,-0.21,-0.77,992.37,0.0,1561984114267.0
1561984083618,2627529.0,60.0,7.76,-0.41,5.78,8.19,-0.4,5.37,-1.89,-0.21,-0.77,992.36,0.0,1561984114318.0
1561984083668,2628993.0,60.0,8.24,-0.61,5.65,8.17,-0.37,5.41,-1.96,-0.21,-0.84,992.36,0.0,1561984114368.0
1561984083718,2630496.0,60.0,8.12,-0.42,5.51,8.12,-0.41,5.49,-1.89,-0.21,-0.77,992.36,0.0,1561984114418.0
1561984083768,2632022.0,60.0,7.21,-0.12,6.27,8.12,-0.39,5.48,-1.96,-0.21,-0.77,992.35,0.0,1561984114468.0
1561984083818,2633431.0,60.0,7.2,-0.64,5.87,8.14,-0.36,5.46,-1.96,-0.21,-0.77,992.34,0.0,1561984114518.0
1561984083867,2635122.0,60.0,7.77,-0.28,5.88,8.12,-0.39,5.48,-1.96,-0.21,-0.77,992.34,0.0,1561984114567.0
1561984083918,2636499.0,60.0,7.65,-0.11,5.83,8.12,-0.42,5.49,-1.96,-0.21,-0.84,992.33,0.0,1561984114618.0
1561984083968,2636827.0,60.0,7.75,-0.55,5.75,8.13,-0.43,5.46,-1.96,-0.21,-0.84,992.33,0.0,1561984114668.0
1561984084018,2636355.0,60.0,7.67,-0.61,5.54,8.13,-0.52,5.46,-1.96,-0.21,-0.77,992.32,0.0,1561984114718.0
1561984084068,2634044.0,60.0,8.76,-0.61,5.99,8.14,-0.58,5.44,-1.96,-0.21,-0.84,992.31,0.0,1561984114768.0
1561984084119,2633172.0,60.0,8.29,-1.25,5.48,8.17,-0.6,5.39,-1.96,-0.21,-0.84,992.31,0.0,1561984114819.0
1561984084168,2632307.0,60.0,8.23,-1.0,5.47,8.18,-0.65,5.37,-1.96,-0.21,-0.77,992.3,0.0,1561984114868.0
1561984084219,2631563.0,60.0,8.31,-0.78,5.19,8.16,-0.71,5.39,-1.96,-0.21,-0.84,992.3,0.0,1561984114919.0
1561984084268,2630368.0,60.0,8.47,-1.06,5.58,8.12,-0.78,5.45,-1.96,-0.21,-0.77,992.29,0.0,1561984114968.0
1561984084319,2629924.0,60.0,8.06,-1.21,5.63,8.11,-0.81,5.46,-1.96,-0.21,-0.77,992.29,0.0,1561984115019.0
1561984084371,2627992.0,60.0,7.21,-1.28,5.5,8.11,-0.83,5.46,-1.96,-0.21,-0.84,992.28,0.0,1561984115071.0
1561984084419,2626913.0,60.0,7.68,-0.98,5.5,8.08,-0.86,5.5,-1.89,-0.21,-0.84,992.28,0.0,1561984115119.0
1561984084468,2625665.0,60.0,7.91,-0.98,5.53,8.04,-0.91,5.53,-1.96,-0.21,-0.77,992.27,0.0,1561984115168.0
1561984084518,2624567.0,60.0,7.72,-1.05,5.9,8.1,-0.93,5.44,-1.96,-0.21,-0.84,992.27,0.0,1561984115218.0
1561984084568,2623559.0,60.0,7.56,-1.33,5.76,8.13,-0.93,5.4,-1.96,-0.21,-0.84,992.26,0.0,1561984115268.0
1561984084619,2622888.0,60.0,8.86,-1.15,5.14,8.16,-0.96,5.36,-1.96,-0.21,-0.77,992.25,0.0,1561984115319.0
1561984084668,2623949.0,60.0,8.71,-0.94,5.49,8.2,-0.97,5.28,-1.96,-0.21,-0.77,992.25,0.0,1561984115368.0
1561984084719,2625025.0,60.0,8.18,-1.16,5.12,8.25,-0.93,5.22,-1.96,-0.14,-0.77,992.24,0.0,1561984115419.0
1561984084768,2626253.0,60.0,8.32,-1.07,4.79,8.26,-0.92,5.2,-1.96,-0.21,-0.84,992.24,0.0,1561984115468.0
1561984084819,2627808.0,60.0,8.65,-0.63,4.96,8.26,-0.92,5.21,-1.96,-0.21,-0.77,992.24,0.0,1561984115519.0
1561984084868,2628954.0,60.0,7.9,-0.81,4.98,8.23,-0.9,5.26,-1.96,-0.21,-0.77,992.23,0.0,1561984115568.0
1561984084919,2630240.0,60.0,7.85,-0.83,5.23,8.25,-0.86,5.24,-1.96,-0.28,-0.77,992.22,0.0,1561984115619.0
1561984084969,2629167.0,60.0,7.3,-0.72,5.48,8.27,-0.77,5.21,-1.96,-0.21,-0.77,992.22,0.0,1561984115669.0
1561984085019,2626597.0,60.0,8.14,-0.51,5.27,8.3,-0.71,5.18,-1.96,-0.21,-0.77,992.21,0.0,1561984115719.0
1561984085068,2624512.0,60.0,8.41,-0.03,5.33,8.32,-0.71,5.15,-1.96,-0.21,-0.77,992.21,0.0,1561984115768.0
1561984085119,2622311.0,60.0,8.59,-0.3,5.36,8.38,-0.72,5.05,-1.96,-0.21,-0.77,992.2,0.0,1561984115819.0
1561984085169,2620410.0,60.0,8.35,-0.67,5.11,8.47,-0.72,4.89,-1.96,-0.21,-0.77,992.2,0.0,1561984115869.0
1561984085219,2619349.0,60.0,8.07,-0.7,4.09,8.53,-0.68,4.79,-1.96,-0.21,-0.77,992.19,0.0,1561984115919.0
1561984085269,2619522.0,60.0,8.45,-0.66,3.54,8.58,-0.59,4.72,-1.96,-0.21,-0.84,992.18,0.0,1561984115969.0
1561984085319,2621099.0,60.0,8.68,-0.37,4.03,8.62,-0.53,4.64,-1.96,-0.21,-0.84,992.17,0.0,1561984116019.0
1561984085371,2623254.0,60.0,8.88,0.08,4.34,8.67,-0.42,4.56,-1.96,-0.21,-0.77,992.17,0.0,1561984116071.0
1561984085419,2624357.0,60.0,8.92,-0.01,4.25,8.72,-0.32,4.47,-1.96,-0.21,-0.77,992.16,0.0,1561984116119.0
1561984085469,2624898.0,60.0,9.44,0.42,4.19,8.78,-0.24,4.37,-1.96,-0.21,-0.77,992.16,0.0,1561984116169.0
1561984085519,2625693.0,59.0,8.58,0.41,3.99,8.83,-0.21,4.25,-1.89,-0.21,-0.77,992.15,0.0,1561984116219.0
1561984085569,2626687.0,59.0,8.94,0.33,3.91,8.86,-0.21,4.2,-1.96,-0.21,-0.77,992.14,0.0,1561984116269.0
1561984085620,2628258.0,60.0,8.74,0.06,3.69,8.91,-0.16,4.09,-1.96,-0.21,-0.84,992.13,0.0,1561984116320.0
1561984085669,2629519.0,60.0,8.98,-0.23,4.39,8.96,-0.14,3.99,-1.96,-0.21,-0.84,992.12,0.0,1561984116369.0
1561984085720,2631891.0,60.0,8.78,0.19,4.27,8.99,-0.17,3.92,-1.96,-0.21,-0.77,992.11,0.0,1561984116420.0
1561984085769,2633703.0,59.0,8.64,0.05,4.15,8.97,-0.22,3.95,-1.96,-0.21,-0.84,992.1,0.0,1561984116469.0
1561984085820,2635010.0,60.0,8.77,-0.44,3.48,8.97,-0.27,3.96,-1.96,-0.21,-0.77,992.1,0.0,1561984116520.0
1561984085869,2635410.0,60.0,8.59,-0.58,4.0,8.97,-0.33,3.94,-1.96,-0.21,-0.77,992.09,0.0,1561984116569.0
1561984085920,2634186.0,60.0,8.47,-0.66,3.81,8.98,-0.4,3.92,-1.96,-0.21,-0.77,992.08,0.0,1561984116620.0
1561984085969,2632555.0,59.0,8.62,-0.77,3.7,9.01,-0.41,3.85,-1.96,-0.21,-0.77,992.07,0.0,1561984116669.0
1561984086020,2631764.0,59.0,8.48,-0.86,3.58,9.02,-0.46,3.82,-1.96,-0.21,-0.77,992.06,0.0,1561984116720.0
1561984086069,2629824.0,60.0,9.04,-0.55,3.48,9.02,-0.44,3.82,-1.96,-0.21,-0.84,992.06,0.0,1561984116769.0
1561984086120,2628633.0,60.0,9.04,-0.84,3.72,9.01,-0.45,3.85,-1.96,-0.21,-0.77,992.05,0.0,1561984116820.0
1561984086170,2627608.0,60.0,9.45,-0.34,4.33,9.01,-0.44,3.84,-1.96,-0.21,-0.77,992.04,0.0,1561984116870.0
1561984086220,2627042.0,60.0,9.35,-0.58,4.63,8.98,-0.44,3.92,-1.89,-0.21,-0.77,992.03,0.0,1561984116920.0
1561984086270,2626224.0,60.0,9.8,-0.23,4.81,8.99,-0.41,3.9,-1.96,-0.21,-0.77,992.02,0.0,1561984116970.0
1561984086320,2626520.0,60.0,8.67,-0.46,5.0,8.99,-0.39,3.9,-1.96,-0.21,-0.77,992.01,0.0,1561984117020.0
1561984086372,2626536.0,60.0,8.61,-0.14,3.97,8.98,-0.42,3.92,-1.96,-0.21,-0.84,992.01,0.0,1561984117072.0
1561984086420,2627466.0,60.0,8.51,-0.3,4.09,8.94,-0.45,4.0,-1.96,-0.21,-0.84,992.0,0.0,1561984117120.0
1561984086470,2628219.0,60.0,8.85,-0.65,4.27,8.92,-0.5,4.04,-1.96,-0.21,-0.84,991.99,0.0,1561984117170.0
1561984086520,2629681.0,60.0,8.5,-0.66,4.73,8.92,-0.54,4.03,-1.96,-0.21,-0.77,991.99,0.0,1561984117220.0
1561984086570,2631146.0,60.0,8.31,-0.85,4.11,8.93,-0.57,4.02,-1.96,-0.28,-0.77,991.98,0.0,1561984117270.0
1561984086621,2633119.0,60.0,8.63,-0.85,3.97,8.92,-0.61,4.03,-1.96,-0.28,-0.84,991.98,0.0,1561984117321.0
1561984086670,2635620.0,60.0,8.95,-0.82,4.08,8.89,-0.62,4.09,-1.96,-0.21,-0.77,991.97,0.0,1561984117370.0
1561984086721,2637780.0,60.0,9.42,-0.98,4.5,8.88,-0.62,4.12,-1.96,-0.21,-0.77,991.96,0.0,1561984117421.0
1561984086771,2639755.0,60.0,9.08,-0.83,5.02,8.87,-0.63,4.14,-1.96,-0.21,-0.77,991.96,0.0,1561984117471.0
1561984086821,2639277.0,60.0,8.74,-0.63,4.66,8.87,-0.63,4.14,-1.96,-0.21,-0.77,991.95,0.0,1561984117521.0
1561984086869,2637946.0,60.0,8.62,-0.65,4.4,8.85,-0.63,4.18,-1.96,-0.21,-0.77,991.95,0.0,1561984117569.0
1561984086921,2636866.0,60.0,9.1,-0.7,4.5,8.84,-0.63,4.21,-1.96,-0.21,-0.84,991.94,0.0,1561984117621.0
1561984086970,2635465.0,60.0,8.93,-0.64,4.95,8.83,-0.63,4.21,-1.96,-0.21,-0.77,991.93,0.0,1561984117670.0
1561984087021,2634761.0,60.0,8.68,-0.61,4.66,8.84,-0.62,4.19,-1.96,-0.21,-0.77,991.93,0.0,1561984117721.0
1561984087072,2634275.0,60.0,8.54,-0.63,4.36,8.85,-0.59,4.19,-1.96,-0.21,-0.77,991.92,0.0,1561984117772.0
1561984087122,2634029.0,60.0,8.99,-0.56,4.38,8.85,-0.56,4.18,-1.96,-0.21,-0.77,991.92,0.0,1561984117822.0
1561984087171,2633712.0,60.0,8.99,-0.43,4.55,8.86,-0.54,4.17,-1.96,-0.21,-0.84,991.91,0.0,1561984117871.0
1561984087222,2633880.0,60.0,8.92,-0.28,4.51,8.88,-0.49,4.13,-1.96,-0.21,-0.77,991.91,0.0,1561984117922.0
1561984087271,2633992.0,60.0,8.65,-0.35,4.32,8.91,-0.46,4.07,-1.96,-0.21,-0.77,991.9,0.0,1561984117971.0
1561984087322,2634688.0,60.0,8.65,-0.17,3.96,8.93,-0.43,4.03,-1.96,-0.21,-0.77,991.9,0.0,1561984118022.0
1561984087375,2635507.0,60.0,9.09,-0.21,3.95,8.97,-0.36,3.96,-1.96,-0.21,-0.77,991.9,0.0,1561984118075.0
1561984087422,2636823.0,60.0,8.9,-0.16,3.96,8.97,-0.34,3.94,-1.96,-0.21,-0.77,991.9,0.0,1561984118122.0
1561984087471,2638347.0,60.0,9.43,0.18,3.99,8.98,-0.32,3.93,-1.96,-0.21,-0.77,991.9,0.0,1561984118171.0
1561984087522,2639490.0,60.0,9.45,-0.21,4.56,9.03,-0.23,3.82,-1.96,-0.21,-0.77,991.89,0.0,1561984118222.0
1561984087572,2640331.0,60.0,8.85,-0.23,4.29,9.09,-0.16,3.67,-1.96,-0.21,-0.77,991.89,0.0,1561984118272.0
1561984087622,2641506.0,60.0,8.2,0.45,3.66,9.14,-0.12,3.55,-1.96,-0.21,-0.84,991.89,0.0,1561984118322.0
1561984087672,2641855.0,60.0,8.64,0.34,3.13,9.15,-0.12,3.52,-2.03,-0.21,-0.77,991.89,0.0,1561984118372.0
1561984087722,2640453.0,60.0,9.22,0.14,3.81,9.18,-0.1,3.44,-1.96,-0.21,-0.84,991.89,0.0,1561984118422.0
1561984087772,2638381.0,60.0,8.94,-0.09,4.26,9.27,-0.07,3.2,-1.96,-0.21,-0.77,991.88,0.0,1561984118472.0
1561984087822,2635782.0,60.0,8.41,0.01,3.86,9.57,-0.0,2.14,-1.96,-0.21,-0.77,991.88,0.0,1561984118522.0
1561984087871,2634362.0,60.0,8.69,0.2,3.6,7.05,0.03,6.82,-1.96,-0.21,-0.84,991.88,0.0,1561984118571.0
1561984087922,2632530.0,60.0,9.4,0.48,3.71,7.57,0.05,6.23,-1.89,-0.21,-0.77,991.88,0.0,1561984118622.0
1561984087972,2631571.0,60.0,9.53,0.52,4.22,8.2,0.09,5.37,-1.96,-0.21,-0.84,991.88,0.0,1561984118672.0
1561984088022,2630623.0,61.0,9.01,0.18,4.21,8.39,0.12,5.08,-1.96,-0.28,-0.77,991.88,0.0,1561984118722.0
1561984088072,2629749.0,60.0,8.25,0.35,3.85,8.42,0.13,5.03,-1.96,-0.21,-0.84,991.88,0.0,1561984118772.0
1561984088122,2629539.0,60.0,8.24,0.25,3.53,8.37,0.13,5.11,-1.96,-0.21,-0.77,991.88,0.0,1561984118822.0
1561984088172,2629770.0,60.0,8.61,0.19,3.99,8.35,0.15,5.14,-1.96,-0.21,-0.77,991.88,0.0,1561984118872.0
1561984088222,2630296.0,60.0,8.95,0.17,4.9,8.44,0.19,4.99,-1.96,-0.21,-0.77,991.89,0.0,1561984118922.0
1561984088272,2631003.0,60.0,8.67,0.34,5.26,8.46,0.21,4.95,-1.96,-0.21,-0.77,991.89,0.0,1561984118972.0
1561984088322,2631897.0,60.0,8.28,0.51,4.38,8.58,0.27,4.75,-1.96,-0.21,-0.77,991.89,0.0,1561984119022.0
1561984088375,2633612.0,60.0,8.09,0.28,4.01,8.64,0.34,4.62,-1.96,-0.21,-0.77,991.9,0.0,1561984119075.0
1561984088422,2634837.0,61.0,8.29,0.68,3.8,8.71,0.42,4.49,-1.96,-0.21,-0.77,991.9,0.0,1561984119122.0
1561984088472,2636187.0,61.0,8.35,0.91,3.98,8.71,0.45,4.49,-1.96,-0.21,-0.77,991.9,0.0,1561984119172.0
1561984088522,2637727.0,61.0,8.47,0.99,3.71,8.74,0.49,4.42,-1.89,-0.21,-0.77,991.9,0.0,1561984119222.0
1561984088572,2639934.0,61.0,8.69,0.65,4.24,8.79,0.56,4.31,-1.96,-0.21,-0.77,991.91,0.0,1561984119272.0
1561984088623,2641238.0,61.0,8.8,0.74,3.77,8.83,0.68,4.2,-1.96,-0.21,-0.77,991.91,0.0,1561984119323.0
1561984088672,2640332.0,61.0,8.89,1.14,3.63,8.87,0.77,4.12,-1.96,-0.21,-0.77,991.91,0.0,1561984119372.0
1561984088723,2638710.0,61.0,8.88,1.6,3.57,8.89,0.88,4.05,-1.96,-0.21,-0.77,991.92,0.0,1561984119423.0
1561984088772,2636908.0,61.0,9.37,1.47,3.66,8.92,1.0,3.94,-1.96,-0.21,-0.77,991.92,0.0,1561984119472.0
1561984088823,2634317.0,61.0,9.07,1.76,3.58,8.93,1.03,3.92,-1.96,-0.21,-0.77,991.92,0.0,1561984119523.0
1561984088872,2631441.0,61.0,9.43,2.05,3.31,8.95,1.02,3.89,-1.96,-0.21,-0.77,991.92,0.0,1561984119572.0
1561984088923,2629814.0,61.0,9.3,1.25,3.83,8.96,1.06,3.84,-1.96,-0.21,-0.77,991.93,0.0,1561984119623.0
1561984088972,2628654.0,61.0,9.1,0.92,3.5,8.99,1.07,3.77,-1.96,-0.21,-0.77,991.93,0.0,1561984119672.0
1561984089023,2627637.0,61.0,9.14,1.4,3.44,8.99,1.07,3.77,-1.96,-0.21,-0.77,991.93,0.0,1561984119723.0
1561984089073,2626822.0,61.0,9.39,1.18,3.26,9.0,1.07,3.75,-2.03,-0.21,-0.77,991.93,0.0,1561984119773.0
1561984089123,2626829.0,61.0,9.09,1.03,3.62,8.99,1.07,3.77,-1.96,-0.21,-0.77,991.94,0.0,1561984119823.0
1561984089173,2626442.0,61.0,9.3,1.11,3.64,8.97,1.07,3.82,-2.03,-0.21,-0.84,991.94,0.0,1561984119873.0
1561984089223,2625242.0,61.0,9.47,1.11,4.03,8.95,1.06,3.86,-1.96,-0.21,-0.84,991.94,0.0,1561984119923.0
1561984089273,2625064.0,61.0,9.52,1.11,4.39,8.94,1.05,3.9,-1.96,-0.21,-0.77,991.95,0.0,1561984119973.0
1561984089323,2625352.0,61.0,9.37,1.06,4.33,8.92,1.05,3.94,-1.96,-0.21,-0.77,991.95,0.0,1561984120023.0
1561984089377,2625907.0,61.0,9.22,1.03,4.31,8.9,1.06,3.97,-1.96,-0.21,-0.77,991.95,0.0,1561984120077.0
1561984089423,2627157.0,61.0,9.08,1.0,4.22,8.89,1.06,4.0,-1.89,-0.21,-0.77,991.95,0.0,1561984120123.0
1561984089474,2628900.0,61.0,8.9,1.14,4.19,8.88,1.08,4.03,-1.89,-0.21,-0.77,991.95,0.0,1561984120174.0
1561984089524,2631171.0,61.0,8.8,1.12,4.07,8.87,1.09,4.04,-2.03,-0.21,-0.77,991.95,0.0,1561984120224.0
1561984089573,2633498.0,61.0,8.76,1.22,4.12,8.85,1.11,4.08,-1.89,-0.21,-0.77,991.96,0.0,1561984120273.0
1561984089624,2634977.0,61.0,9.1,1.2,4.21,8.85,1.13,4.08,-1.96,-0.21,-0.77,991.96,0.0,1561984120324.0
1561984089673,2634968.0,61.0,9.27,1.32,4.52,8.85,1.16,4.06,-1.96,-0.21,-0.84,991.96,0.0,1561984120373.0
1561984089724,2633825.0,61.0,9.54,1.4,4.3,8.86,1.18,4.04,-1.96,-0.21,-0.77,991.96,0.0,1561984120424.0
1561984089774,2632391.0,61.0,9.25,1.44,3.99,8.86,1.21,4.03,-1.96,-0.21,-0.77,991.97,0.0,1561984120474.0
1561984089824,2630946.0,62.0,8.91,1.33,3.8,8.86,1.23,4.02,-1.96,-0.21,-0.77,991.97,0.0,1561984120524.0
1561984089873,2629996.0,62.0,8.67,1.38,3.76,8.84,1.26,4.05,-1.96,-0.28,-0.84,991.97,0.0,1561984120573.0
1561984089924,2630121.0,62.0,8.66,1.4,3.8,8.83,1.29,4.07,-1.96,-0.21,-0.77,991.98,0.0,1561984120624.0
1561984089974,2630939.0,61.0,8.88,1.49,4.17,8.81,1.33,4.1,-1.96,-0.21,-0.77,991.98,0.0,1561984120674.0
1561984090024,2631559.0,62.0,9.19,1.64,4.43,8.82,1.36,4.07,-2.03,-0.21,-0.84,991.98,0.0,1561984120724.0
1561984090074,2632510.0,62.0,9.12,1.71,4.37,8.83,1.39,4.03,-1.96,-0.21,-0.77,991.99,0.0,1561984120774.0
1561984090125,2633577.0,62.0,9.39,1.64,4.04,8.84,1.43,3.99,-1.96,-0.21,-0.77,991.99,0.0,1561984120825.0
1561984090174,2634704.0,61.0,9.75,1.74,4.01,8.86,1.48,3.93,-1.96,-0.21,-0.77,991.99,0.0,1561984120874.0
1561984090224,2636443.0,61.0,9.49,1.85,3.81,8.86,1.59,3.9,-1.89,-0.21,-0.84,991.99,0.0,1561984120924.0
1561984090274,2638139.0,62.0,8.71,1.81,3.29,8.86,1.7,3.85,-2.03,-0.21,-0.77,992.0,0.0,1561984120974.0
1561984090324,2640217.0,62.0,8.28,2.34,3.4,8.83,1.82,3.85,-1.96,-0.21,-0.84,992.0,0.0,1561984121024.0
1561984090377,2642032.0,62.0,8.9,2.63,3.42,8.81,1.9,3.87,-1.96,-0.21,-0.77,992.0,0.0,1561984121077.0
1561984090425,2643853.0,62.0,8.95,2.96,3.85,8.79,1.98,3.86,-1.96,-0.21,-0.77,992.0,0.0,1561984121125.0
1561984090474,2645565.0,62.0,8.83,2.59,4.05,8.79,2.06,3.82,-1.96,-0.21,-0.77,992.0,0.0,1561984121174.0
1561984090525,2647634.0,62.0,8.74,2.62,3.76,8.81,2.12,3.74,-1.96,-0.21,-0.77,992.01,0.0,1561984121225.0
1561984090575,2650340.0,62.0,8.69,2.71,3.38,8.84,2.18,3.65,-1.96,-0.21,-0.77,992.01,0.0,1561984121275.0
1561984090626,2651334.0,62.0,9.1,2.65,3.15,8.85,2.25,3.58,-1.96,-0.21,-0.77,992.01,0.0,1561984121326.0
1561984090675,2651289.0,62.0,9.46,2.77,3.13,8.87,2.31,3.49,-1.96,-0.21,-0.84,992.01,0.0,1561984121375.0
1561984090726,2650186.0,62.0,9.08,2.81,3.07,8.88,2.33,3.46,-1.96,-0.28,-0.77,992.02,0.0,1561984121426.0
1561984090775,2648769.0,62.0,8.86,2.77,2.67,8.87,2.36,3.44,-1.96,-0.21,-0.84,992.02,0.0,1561984121475.0
1561984090826,2647236.0,62.0,8.86,2.41,3.15,8.86,2.45,3.41,-2.03,-0.21,-0.84,992.02,0.0,1561984121526.0
1561984090875,2646413.0,62.0,9.41,2.82,3.52,8.84,2.51,3.42,-1.96,-0.21,-0.77,992.02,0.0,1561984121575.0
1561984090926,2646220.0,62.0,9.49,3.36,3.34,8.83,2.54,3.44,-1.96,-0.21,-0.84,992.02,0.0,1561984121626.0
1561984090976,2646008.0,62.0,8.97,3.18,3.57,8.82,2.55,3.44,-1.96,-0.21,-0.84,992.02,0.0,1561984121676.0
1561984091026,2645741.0,62.0,8.66,2.7,3.48,8.82,2.54,3.46,-1.96,-0.21,-0.77,992.03,0.0,1561984121726.0
1561984091075,2645326.0,62.0,8.69,2.58,3.4,8.83,2.52,3.45,-1.96,-0.21,-0.77,992.03,0.0,1561984121775.0
1561984091126,2645951.0,62.0,9.04,2.56,3.66,8.82,2.51,3.47,-1.96,-0.21,-0.84,992.03,0.0,1561984121826.0
1561984091176,2647132.0,62.0,9.3,2.41,3.5,8.82,2.49,3.5,-1.96,-0.21,-0.84,992.03,0.0,1561984121876.0
1561984091226,2648175.0,62.0,9.12,2.59,3.72,8.82,2.41,3.54,-1.89,-0.21,-0.84,992.03,0.0,1561984121926.0
1561984091276,2648450.0,62.0,8.98,2.32,3.79,8.83,2.38,3.54,-1.96,-0.21,-0.77,992.03,0.0,1561984121976.0
1561984091326,2649176.0,62.0,8.87,1.82,3.73,8.81,2.32,3.63,-1.96,-0.21,-0.77,992.03,0.0,1561984122026.0
1561984091378,2650007.0,62.0,9.07,2.14,3.63,8.81,2.17,3.72,-1.96,-0.21,-0.77,992.03,0.0,1561984122078.0
1561984091426,2651475.0,62.0,8.6,1.78,4.25,8.83,1.98,3.79,-1.96,-0.21,-0.77,992.03,0.0,1561984122126.0
1561984091476,2653221.0,62.0,8.28,0.95,4.17,8.81,1.8,3.91,-1.96,-0.21,-0.84,992.03,0.0,1561984122176.0
1561984091526,2655363.0,62.0,8.97,0.45,4.29,8.79,1.65,4.02,-1.89,-0.21,-0.84,992.03,0.0,1561984122226.0
1561984091576,2657423.0,62.0,8.79,0.34,5.04,8.75,1.53,4.14,-1.96,-0.21,-0.77,992.02,0.0,1561984122276.0
1561984091626,2659491.0,62.0,8.68,0.29,5.26,8.73,1.42,4.23,-1.96,-0.21,-0.77,992.02,0.0,1561984122326.0
1561984091676,2659973.0,62.0,8.43,0.56,5.26,8.7,1.3,4.33,-1.96,-0.21,-0.77,992.02,0.0,1561984122376.0
1561984091726,2658650.0,62.0,8.36,0.43,4.97,8.68,1.16,4.42,-1.96,-0.21,-0.77,992.03,0.0,1561984122426.0
1561984091776,2657215.0,62.0,8.31,0.31,5.06,8.65,1.06,4.51,-1.96,-0.21,-0.77,992.03,0.0,1561984122476.0
1561984091826,2655717.0,62.0,8.13,-0.04,5.2,8.61,0.99,4.59,-1.96,-0.21,-0.84,992.02,0.0,1561984122526.0
1561984091876,2655125.0,62.0,8.43,0.23,5.39,8.56,0.95,4.7,-1.89,-0.21,-0.84,992.02,0.0,1561984122576.0
1561984091926,2655412.0,62.0,8.44,0.43,5.49,8.51,0.94,4.79,-2.03,-0.21,-0.77,992.02,0.0,1561984122626.0
1561984091977,2655784.0,62.0,8.35,0.64,5.6,8.45,0.97,4.89,-1.89,-0.28,-0.77,992.02,0.0,1561984122677.0
1561984092026,2656750.0,62.0,8.41,0.89,5.61,8.42,0.94,4.95,-1.89,-0.21,-0.77,992.02,0.0,1561984122726.0
1561984092077,2657633.0,62.0,8.15,1.17,5.55,8.38,0.94,5.01,-1.96,-0.28,-0.77,992.02,0.0,1561984122777.0
1561984092135,2658817.0,62.0,8.29,0.76,5.33,8.34,0.99,5.06,-1.96,-0.28,-0.84,992.02,0.0,1561984122835.0
1561984092177,2660646.0,62.0,8.28,0.95,5.44,8.31,1.01,5.11,-1.96,-0.28,-0.77,992.02,0.0,1561984122877.0
1561984092227,2662584.0,62.0,8.07,1.38,5.29,8.28,0.99,5.15,-1.96,-0.21,-0.77,992.03,0.0,1561984122927.0
1561984092277,2665214.0,62.0,7.76,1.1,5.07,8.27,0.97,5.18,-1.96,-0.21,-0.84,992.03,0.0,1561984122977.0
1561984092328,2667487.0,62.0,7.69,0.79,5.07,8.26,0.99,5.2,-1.96,-0.28,-0.84,992.03,0.0,1561984123028.0
1561984092380,2669514.0,62.0,8.39,0.87,5.28,8.24,1.03,5.22,-1.96,-0.21,-0.77,992.03,0.0,1561984123080.0
1561984092427,2671870.0,62.0,8.51,1.14,5.42,8.23,1.08,5.22,-1.96,-0.21,-0.84,992.03,0.0,1561984123127.0
1561984092477,2673974.0,62.0,8.53,1.42,5.43,8.24,1.13,5.2,-1.96,-0.21,-0.77,992.03,0.0,1561984123177.0
1561984092527,2676639.0,62.0,8.42,1.51,5.22,8.25,1.19,5.17,-1.96,-0.21,-0.84,992.03,0.0,1561984123227.0
1561984092577,2678068.0,62.0,8.24,1.58,4.94,8.28,1.2,5.12,-1.96,-0.21,-0.77,992.03,0.0,1561984123277.0
1561984092627,2678762.0,62.0,8.34,1.67,4.85,8.29,1.18,5.1,-1.96,-0.21,-0.84,992.03,0.0,1561984123327.0
1561984092677,2677884.0,62.0,8.35,1.18,4.54,8.31,1.14,5.08,-1.96,-0.21,-0.77,992.03,0.0,1561984123377.0
1561984092727,2677251.0,62.0,8.49,1.04,4.82,8.32,1.12,5.08,-1.96,-0.21,-0.77,992.03,0.0,1561984123427.0
1561984092778,2676233.0,62.0,8.82,0.9,4.91,8.33,1.1,5.06,-1.89,-0.21,-0.77,992.03,0.0,1561984123478.0
1561984092827,2675318.0,62.0,8.65,0.92,4.95,8.36,1.09,5.01,-1.89,-0.21,-0.77,992.03,0.0,1561984123527.0
1561984092877,2674666.0,62.0,8.27,0.94,4.69,8.36,1.08,5.01,-1.96,-0.21,-0.77,992.03,0.0,1561984123577.0
1561984092927,2674417.0,62.0,8.53,1.03,4.41,8.36,1.05,5.02,-1.89,-0.21,-0.77,992.03,0.0,1561984123627.0
1561984092978,2673864.0,62.0,8.67,1.02,4.91,8.36,1.02,5.03,-1.89,-0.21,-0.77,992.02,0.0,1561984123678.0
